PSE,SOA,trials.thisRepN,trials.thisTrialN,trials.thisN,trials.thisIndex,Welcome.started,Welcome.stopped,target_bottom.started,target_bottom.stopped,target_top.started,target_top.stopped,fixation_demo.started,fixation_demo.stopped,fixation_1.started,fixation_1.stopped,sound_22.started,sound_22.stopped,sound_23.started,sound_23.stopped,sound_24.started,sound_24.stopped,sound_8.started,sound_8.stopped,sound_25.started,sound_25.stopped,grating_top_2.started,grating_top_2.stopped,grating_2.started,grating_2.stopped,sound_26.started,sound_26.stopped,sound_27.started,sound_27.stopped,sound_28.started,sound_28.stopped,sound_29.started,sound_29.stopped,sound_30.started,sound_30.stopped,sound_31.started,sound_31.stopped,sound_32.started,sound_32.stopped,sound_33.started,sound_33.stopped,trial_resp_2.keys,trial_resp_2.rt,trial_resp_2.started,trial_resp_2.stopped,text_3.started,text_3.stopped,participant,session,date,expName,psychopyVersion,frameRate,
-6,17,0,0,0,19,13.5568330279998,None,13.5568330279998,None,13.5568330279998,None,13.5568330279998,None,44.39297694000015,None,0.20165870890014048,0.22159181090000857,0.30165587990040876,0.32156262490025256,0.4016296619001878,0.42159004190034466,0.5016532609001843,0.5216066419002345,0.6016719019003176,0.6217004499003451,47.41244879299984,47.91235080500019,47.41244879299984,47.91235080500019,0.7016101159001664,0.7215981059002843,0.8017145879002783,0.8217387189001784,0.9016448879001473,0.9217059659004008,1.0015790219003975,1.0215658979000182,1.1015834119002648,1.1216406329003803,1.2016223309001361,1.2216961379003806,1.3015895989001365,1.3217175909003345,1.4016562379001698,1.421847765900111,left,0.9142345750001368,0.9816124819003562,None,48.442645804999756,None,it_021522,001,2022_Feb_15_1208,Wolfram,2021.2.3,99.98880225387141,
-6,38,0,1,1,40,,,,,,,,,49.24233532900007,None,0.20316513290026705,0.2231620719003331,0.3034182049004812,0.32321189990034327,0.4032452999003908,0.4232475619005527,0.5031896889004202,0.5232121779004046,0.6032530169004531,0.6232542059005937,258.7508833900001,259.25080416799983,258.7508833900001,259.25080416799983,0.7032322999002645,0.7232571739004925,0.8032332689003852,0.8232562519006024,0.9032501949004654,None,1.003304871900582,1.023221616900173,1.1032250879002277,1.123196810900481,1.2032768169005976,1.2232418539001628,1.3031935509002324,1.3232416059004208,1.403318866900463,1.423227312900508,right,0.693026669000119,1.183231304900346,None,259.55086398899994,None,it_021522,001,2022_Feb_15_1208,Wolfram,2021.2.3,99.98880225387141,
-6,28,0,2,2,30,,,,,,,,,260.35090278000007,None,0.20268523189997723,0.22275816389992542,0.3026398878996588,0.322674694899888,0.40277303589982694,0.422721933899993,0.5026818518999789,0.5227578338999592,0.6026824448999832,0.6226686228997096,261.8403002199998,262.34034466799994,261.8403002199998,262.34034466799994,0.7027086188995781,0.7227683998999055,0.8026920928996333,0.8226870708999741,0.9020642428999963,0.9221236808998583,1.0020385338998494,1.0220592798996222,1.10201762889983,None,1.2021461468998496,1.2220590969000114,1.3021178378999139,1.322078205899743,1.4020314988997598,1.4220559488999243,right,0.7649158889998944,1.0820785688997603,None,262.71028996899986,None,it_021522,001,2022_Feb_15_1208,Wolfram,2021.2.3,99.98880225387141,
-6,3,0,3,3,5,,,,,,,,,263.5102469029998,None,0.20306472389984265,0.2231411119000768,0.3031160399000328,0.32313673589987957,0.403121523900154,0.42316807389988753,0.5032284279000123,0.523139805899973,0.6031940099001076,0.6231027338999411,264.91025014700017,265.41026590699994,264.91025014700017,265.41026590699994,0.7031033459002174,0.7231186649000847,0.8030406258999392,None,0.9030341658999532,None,1.0032327589001397,1.0231131468999592,1.103166421899914,1.123117234899837,1.2031103309000173,1.2230355019000854,1.30316221890007,1.323056791899944,1.403142764900167,1.4231182099001671,right,0.9681491480000659,0.8331590919001428,None,265.9804292250001,None,it_021522,001,2022_Feb_15_1208,Wolfram,2021.2.3,99.98880225387141,
-6,26,0,4,4,28,,,,,,,,,266.7797621079999,None,0.20310301189965685,0.2232206218995998,0.303080283899817,0.3230719378998401,0.40315137989955474,0.42311144989980676,0.5032057428998087,0.5231333828996867,0.6031081228998119,0.6232161468997219,270.1797881950001,270.6798876990001,270.1797881950001,270.6798876990001,0.7031823208999413,0.723160711899709,0.803075287899901,0.8231898318999811,0.9030658528995446,0.9231249958997978,1.0030516898996211,1.0231634738997855,1.1031424958996467,1.123045511899818,1.2031665698996221,1.2231738378995942,1.3031606328995622,1.3231704158997672,1.4030724988997463,1.4230877158997828,left,0.6598467439998785,1.0631282468998506,None,270.9397872169998,None,it_021522,001,2022_Feb_15_1208,Wolfram,2021.2.3,99.98880225387141,
-6,14,0,5,5,16,,,,,,,,,271.73923928800014,None,0.2028138429000137,0.22282715490018745,0.3027347489000931,None,0.402790828900379,0.42277567690007345,0.5027797599000223,0.5227828519000468,0.6028001999002299,0.6227796719003891,273.38929732299994,273.8893089789999,273.38929732299994,273.8893089789999,0.7028772609000953,0.7227487559002839,0.8028833469002166,0.8228776399000708,0.9028479879002589,0.9228326859001754,1.0027264579002804,1.0228538469000341,1.102712430900283,1.1227608509002494,1.2028036259002874,1.2228030068999942,1.302799898900048,1.322734887900424,1.4027383309003199,1.4227464319001228,right,0.937886852000247,0.9427726489002453,None,274.4294091339998,None,it_021522,001,2022_Feb_15_1208,Wolfram,2021.2.3,99.98880225387141,
-6,0,0,6,6,2,,,,,,,,,275.2293198309999,None,0.2029456828995535,0.2229390798993336,0.3029418298992823,None,0.4030248408994339,0.4229931608992956,0.502936885899544,None,0.6029467388993908,None,276.34933448599986,276.8487480429999,276.34933448599986,276.8487480429999,0.7031037948995618,0.7230274798994287,0.8030353938993358,0.8230106028995579,0.9030308838991914,0.9230151178994674,1.0029546988994298,1.023006588899534,1.1029915268995865,1.12241650489932,1.202404183899489,1.2224151098994298,1.3024588028993094,1.3224382028993205,1.4024673368994627,1.4224382408992824,right,0.7904226610003207,0.8030353938993358,None,277.24876381800004,None,it_021522,001,2022_Feb_15_1208,Wolfram,2021.2.3,99.98880225387141,
-6,20,0,7,7,22,,,,,,,,,278.0488079339998,None,0.20312637689994517,0.22310265990017797,0.30316169090019685,0.32320623890018396,0.403166111900191,0.4230931739002699,0.5031975849001356,0.5230777659003252,0.6030189629000233,None,279.3788137060001,279.8789019000001,279.3788137060001,279.8789019000001,0.703041800900337,None,0.8030771399003243,0.823055616900092,0.9030379058999642,0.9230698859000768,1.0030263549001575,1.023267914900316,1.1030230049000238,1.1231806969003628,1.2030503058999784,1.2230246989001898,1.3030768728999647,1.323045048899985,1.4031968979002158,1.4230224389002615,left,1.0234600799999498,1.0030263549001575,None,280.50882932600007,None,it_021522,001,2022_Feb_15_1208,Wolfram,2021.2.3,99.98880225387141,
-6,16,0,8,8,18,,,,,,,,,281.308876477,None,0.20327771490019586,0.2232513199001005,0.3032519019002393,0.32325132389996725,0.40331003690016587,0.42320082790001834,0.5033103458999904,0.5232190588999401,0.6031991939003092,0.6231957279001108,283.468337882,283.9682753930001,283.468337882,283.9682753930001,0.7032595518999187,0.7232115729002544,0.8032370968999203,0.8232026219002364,0.9033145539001453,0.9234676219002722,1.0032599739001853,1.0232328299002802,1.1032946609002465,1.1232431119001376,1.2032703299000787,1.2232509399000264,1.303246400900207,None,1.4032459878999362,1.4232763229001648,right,1.1188657289999355,0.9634895139001856,None,284.68826225400016,None,it_021522,001,2022_Feb_15_1208,Wolfram,2021.2.3,99.98880225387141,
-6,18,0,9,9,20,,,,,,,,,285.488280345,None,0.20248292089991082,0.22243695689985543,0.3024280818999614,0.3224940199002049,0.40254049790019053,0.42253158690027703,0.5025171959000545,0.5224699359000624,0.6024586318999354,0.6225565848999395,287.537768486,288.0378578939999,287.537768486,288.0378578939999,0.7025320819002445,0.7225347808998777,0.8024501498998688,0.8225126728998475,0.9024777199001619,0.9224360889002128,1.0024734278999858,1.0224303679001423,1.102523974900123,1.1224268128999029,1.2024400369000432,1.2224836088998927,1.3025017139002557,1.3224916418998873,1.4025540599000124,1.4224755599002492,left,1.031996104999962,0.9825127559001885,None,288.67780761899985,None,it_021522,001,2022_Feb_15_1208,Wolfram,2021.2.3,99.98880225387141,
-6,32,0,10,10,34,,,,,,,,,289.477792058,None,0.20311575489995448,0.22306861490005758,0.3031153998999798,None,0.4031746589002978,0.42315287890005493,0.5031517648999397,0.5231855049000842,0.6031085478998648,0.6230967998999404,291.637767832,292.13745332400003,291.637767832,292.13745332400003,0.703137285900084,0.7230751839001641,0.8031786059000297,0.8230918729000223,0.9031689599000856,0.9231036598998799,1.0032383429002039,1.0232328849001533,1.1031461238999327,1.1232316659002208,1.2027301119001095,1.2225784829001896,1.3025742209001692,1.3227074958999765,1.402589284899932,1.4225134728999365,right,0.6538383790002626,1.1232316659002208,None,292.39727089300004,None,it_021522,001,2022_Feb_15_1208,Wolfram,2021.2.3,99.98880225387141,
-6,39,0,11,11,41,,,,,,,,,293.19726392699977,None,0.20317205689980256,0.22315683589977198,0.30310682790013743,None,0.40319564289984555,0.4231536519000656,0.503160613900036,0.5231648619001135,0.6031924328999594,0.6231419538999035,295.1473545969998,295.64738130700016,295.1473545969998,295.64738130700016,0.7031932568997945,0.7231392858998333,0.803182589899734,0.8231281848998151,0.9032295119000082,0.9231271438998192,1.0032377499001086,1.0232262028998775,1.1032510739000827,1.1231531338999048,1.2032021528998484,1.2231648578999739,1.303167794899764,1.3232142959000157,1.4031579598999997,1.4230754309000986,right,0.6004706120002083,1.1930918218999977,None,295.8591206400001,None,it_021522,001,2022_Feb_15_1208,Wolfram,2021.2.3,99.98880225387141,
-6,1,0,12,12,3,,,,,,,,,296.667371559,None,0.20270791590019144,0.2226849818998744,0.30282375190017774,0.3227019349001239,0.40278630290004,None,0.5027551418997973,None,0.6027992388999337,0.62275961990008,297.89672107700017,298.39677956900005,297.89672107700017,298.39677956900005,0.7028443058998164,0.7227700939001807,0.802746378899883,0.8228184848999263,0.9027475869002046,0.92285523190003,1.0027572109001994,1.0227879518997725,1.1027480688999276,1.1226953928999137,1.2027232799000558,1.2228202568999222,1.302735464899797,1.3227382299000965,1.4029696429001888,1.42297978589977,right,0.9891796809997686,0.8127788248998513,None,298.9867936259998,None,it_021522,001,2022_Feb_15_1208,Wolfram,2021.2.3,99.98880225387141,
-6,46,0,13,13,48,,,,,,,,,299.78673872599984,None,0.20323473190001096,0.22313815689994954,0.30314784489974045,0.3232325218996266,0.4032844648995706,0.42313408789959794,0.5032893218999561,0.5233129198995812,0.6031842568995671,0.6232803678999517,301.7867849529998,302.28619226399996,301.7867849529998,302.28619226399996,0.703161955899759,None,0.8032061968997368,0.8233253788998809,0.9032429328999569,0.9231293619000098,1.0032058519000202,1.0231468308998046,1.1035592838998127,1.1232954728998266,1.2025880388996484,None,1.3025765568995666,1.3225642458996845,1.4026456168999175,1.4226556518997313,right,0.5990243770002053,1.2626433468999494,None,302.486172763,None,it_021522,001,2022_Feb_15_1208,Wolfram,2021.2.3,99.98880225387141,
-6,49,0,14,14,51,,,,,,,,,303.28618401999984,None,0.20278941690003194,0.22272272589998465,0.3028154708999864,0.3227863828997215,0.4028343739000775,0.42283407290005925,0.5026991838999493,None,0.6027185559000827,0.6227334369000346,305.12623316400004,305.62622934599995,305.12623316400004,305.62622934599995,0.7027591218998168,0.72277580689979,0.8027938968998569,0.8227282388997992,0.9027419048998127,None,1.0027966658999503,1.0227936859000692,1.102801400899807,None,1.2027990398996735,1.2227943468997182,1.302765873899716,1.3227279539000847,1.4027090749000308,None,left,0.5323153150002327,1.292835545899834,None,305.7662203619998,None,it_021522,001,2022_Feb_15_1208,Wolfram,2021.2.3,99.98880225387141,
-6,21,0,15,15,23,,,,,,,,,306.5662532739998,None,0.20298353389989643,0.2229926138998053,0.3029558458997599,0.3229466288998992,0.40296167789983883,0.42299891389984623,0.5030322998995871,0.5229823368995312,0.6029603428996779,0.6229491098997642,307.93567435299974,308.43565566300003,307.93567435299974,308.43565566300003,0.7029778088999592,0.7230221128997982,0.8029618178998135,0.8229326358996332,0.9029612128997542,None,1.002991580899561,1.0229853088999334,1.1029860658995858,1.122948452899891,1.2029494638995857,1.2229612398996323,1.3030000928997651,1.3230132488997697,1.40295204189988,1.4229510138998194,left,0.6144542279998859,1.0129899098997157,None,308.65620453600013,None,it_021522,001,2022_Feb_15_1208,Wolfram,2021.2.3,99.98880225387141,
-6,34,0,16,16,36,,,,,,,,,309.4556814839998,None,0.20305520590000015,None,0.30311894790020233,0.32315452090006147,0.4031095829000151,0.4229721618999065,0.5029925039002592,None,0.6030703389001246,None,311.92510925399984,312.4252250469999,311.92510925399984,312.4252250469999,0.7031111518999751,0.7230602798999826,0.8030034328999136,None,0.9030622669001787,None,1.0024283289003506,None,1.102428773900101,1.122577568899942,1.2024929149001764,1.2224163739001597,1.302581494900096,1.3225511508999261,1.4025190949000717,1.4224803449001229,left,0.5171632169999612,1.1424662239001009,None,312.54521181300015,None,it_021522,001,2022_Feb_15_1208,Wolfram,2021.2.3,99.98880225387141,
-6,33,0,17,17,35,,,,,,,,,313.3451113639999,None,0.20322873789973528,0.2232664838998062,0.30327394089954396,0.32322313889972065,0.4033297938999567,0.42320793889985,0.5033320888996968,0.5233368098997744,0.6032939278998128,0.6232500438995885,314.965208264,315.465205085,314.965208264,315.465205085,0.7032785548999527,0.7232961378995242,0.8032651848998285,0.8232669898998211,0.903277081899887,0.9232384038996315,1.0032712678998905,1.023365732899947,1.10325629989984,1.1232824168996558,1.2033592828997826,1.2232366118996651,1.3032987198998853,None,1.4032707258998016,None,left,0.5259981989997868,1.1332195668996974,None,315.59525954499986,None,it_021522,001,2022_Feb_15_1208,Wolfram,2021.2.3,99.98880225387141,
-6,36,0,18,18,38,,,,,,,,,316.39529367900013,None,0.20308880289940134,0.2230414778996419,0.303286151899556,0.32309216989960987,0.4030167468995387,0.4230415598995023,0.5030829648994768,0.523099931899651,0.603092138899683,0.6230990298995494,317.92482944799985,318.42463685799976,317.92482944799985,318.42463685799976,0.703108929899372,0.7230298198996934,0.8031589228994562,0.8230400578995614,0.903077935899546,0.923087202899751,1.0030577928996536,1.023079354899437,1.1030826268993223,None,1.2030361768993316,1.22299734589933,1.303091555899755,1.323069281899734,1.4030828568993456,1.4230120938996151,right,0.7957496290000563,1.1629897538996374,None,318.82486077600015,None,it_021522,001,2022_Feb_15_1208,Wolfram,2021.2.3,99.98880225387141,
-6,2,0,19,19,4,,,,,,,,,319.6246427289998,None,0.20232325689994468,0.22228085589995317,0.30228139390010256,0.3222672548999981,0.40232193090014334,0.42238192590002654,0.5025276518999817,0.5224478689001444,0.6023485389000598,0.6224088758999642,321.3747255180001,321.874308339,321.3747255180001,321.874308339,0.7023002689002169,None,0.8023419488999934,0.8223375419001968,0.9024283219000608,0.9222466819001056,1.002337006900234,1.0223937569003283,1.1022841289000098,1.122443666899926,1.2018222819001494,1.2217862299003173,1.3017035069001395,1.3218109358999754,1.4017310569001893,1.4217120569001054,right,0.5946142900002087,0.8223375419001968,None,322.0742644510001,None,it_021522,001,2022_Feb_15_1208,Wolfram,2021.2.3,99.98880225387141,
-6,35,0,20,20,37,,,,,,,,,322.8741522549999,None,0.20313589489978767,0.22319373790014652,0.30312597689999166,0.32316311590011537,0.40316214189988386,None,0.5032484209000359,0.5231402448998779,0.6031456638997952,None,324.87415655099994,325.3741645509999,324.87415655099994,325.3741645509999,0.7032023879000917,0.7231828768999549,0.8031620788997316,None,0.9032964008997624,0.9231402329000957,1.0031488148997596,1.0231811508997453,1.103199328899791,1.1231451358999038,1.2033042639000087,1.223186678899765,1.3031749218998812,1.3232630198999686,1.4032028318997618,1.4232639529000153,left,0.719427339000049,1.1531963569000254,None,325.69416937200003,None,it_021522,001,2022_Feb_15_1208,Wolfram,2021.2.3,99.98880225387141,
-6,44,0,21,21,46,,,,,,,,,326.4943476839999,None,0.20302557490003892,0.2229483228998106,0.3029156198999772,None,0.4029489458998796,0.4229293818998485,0.5029803628999616,0.5230656838998584,0.6030256568997174,0.6229409538996151,328.06368790199986,328.5636193129999,328.06368790199986,328.5636193129999,0.7029904058999819,0.7229434178998417,0.8030628538999736,0.8230495569000595,0.903067943899714,0.9229874768998343,1.0030272168996817,1.023039851899739,1.1030982318998213,1.1230583168999146,1.203033770899765,1.2230252788999678,1.3030583948998355,1.3229879938999147,1.4029590078998808,1.42296823389961,left,0.6124669599998924,1.2430090238999583,None,328.7836812589999,None,it_021522,001,2022_Feb_15_1208,Wolfram,2021.2.3,99.98880225387141,
-6,45,0,22,22,47,,,,,,,,,329.58364276700013,None,0.2029754539003079,0.22302045390006242,0.30306930389997433,0.3230554578999545,0.4030865689001075,0.4230075189002491,0.5030389288999686,0.5229833559001236,0.6030778139001995,0.6230979369001943,331.1137280889998,None,331.1137280889998,None,0.7031589039002029,0.7230245349001052,0.8030997789001049,0.8229761699003575,0.9030856249000863,0.92296785489998,1.0031010779002827,1.0230255578999277,1.1030159639003614,1.1230991119000464,1.2031835849002164,1.2230683539000893,1.3029871839003135,1.3230486969000594,1.4029829569003596,1.4230892339001002,left,0.3862192569999934,1.2530042399002923,None,331.60372385499977,None,it_021522,001,2022_Feb_15_1208,Wolfram,2021.2.3,99.98880225387141,
-6,47,0,23,23,49,,,,,,,,,332.40323802800003,None,0.20313306089974503,0.2230027299001449,0.30307592789995397,0.32307676690015796,0.40301959189991976,0.4229897259001518,0.5030094649000603,0.5230102068999258,0.6029879069001254,None,334.0431326019998,334.5432947139998,334.0431326019998,334.5432947139998,0.7030783799000346,0.7230069768997964,0.8030096989000413,0.8229866839001261,0.9029914308998741,0.9230166298998483,1.0031365528998322,1.0231324869000673,1.1031562818998282,1.1229970848999073,1.2031119979001232,1.2230635369000993,1.3030108438997559,1.323116501900131,1.4030295308998575,1.423120924900104,left,0.4492773240003771,1.2729599438998775,None,334.593209313,None,it_021522,001,2022_Feb_15_1208,Wolfram,2021.2.3,99.98880225387141,
-6,19,0,24,24,21,,,,,,,,,335.39315343199996,None,0.20285618089928903,None,0.3029691468996134,0.3229309888993157,0.40289057389964,0.4229001118992528,0.5028649268992922,0.5228490278996105,0.6028796268992664,0.622964701899491,336.7332504599999,337.2325757069998,336.7332504599999,337.2325757069998,0.702907560899348,None,0.8028967228992769,None,0.9030179048995706,0.9228575648994592,1.002926835899416,1.0228478248995998,1.1023876878994088,1.1223482218993013,1.2023715648992948,1.2223218188992178,1.302308000899302,1.3223015648995897,1.4023372228994049,None,left,0.4141598090000116,0.9929480558994328,None,337.25271485899975,None,it_021522,001,2022_Feb_15_1208,Wolfram,2021.2.3,99.98880225387141,
-6,23,0,25,25,25,,,,,,,,,338.0526851939999,None,0.2029524788999879,0.22283737090037903,0.30277107590018204,0.3227970299003573,0.4027054009002313,0.4227770839002005,0.5029415919002531,0.5227295838999453,0.602942047900342,None,339.302605415,339.802648974,339.302605415,339.802648974,0.7027823039002215,0.7227204449000055,0.8027488319003169,0.822844083900236,0.9027620399001535,0.9227837919002013,1.0027916949002247,1.022768434900172,1.102807232899977,1.122780819900072,1.2028120818999923,1.2227950759001942,1.30275331690018,1.3227949779002302,1.4027740009000809,1.422781242900328,left,0.4321952720001718,1.03287677490016,None,339.8426315070001,None,it_021522,001,2022_Feb_15_1208,Wolfram,2021.2.3,99.98880225387141,
-6,40,0,26,26,42,,,,,,,,,340.642573353,None,0.20334039089993894,0.22327808990030462,0.30334823590010274,0.3233596929003397,0.40329873290011164,0.42318237290010075,0.5033550379002918,0.5231987389001915,0.6033503599001051,0.6232265379003366,342.1221172579999,None,342.1221172579999,None,0.703267044900258,0.7231824729001346,0.8032072829000754,None,0.9027274089003186,0.9226836929001365,1.0026792449002642,1.0227496999000323,1.1027153339000506,1.1227048498999466,1.2027673969000716,1.2227197289003016,1.3027612429000328,1.322760935900078,1.4026556579001408,1.4227539728999545,left,0.23381606300017665,1.2027673969000716,None,342.4621365590001,None,it_021522,001,2022_Feb_15_1208,Wolfram,2021.2.3,99.98880225387141,
-6,30,0,27,27,32,,,,,,,,,343.26219065899977,None,0.20312091189998682,0.22311563989978822,0.3032153729000129,0.32321452689984653,0.4032293779000611,0.42318285989995275,0.5032192458997997,0.5231306568998662,0.6032831499001077,0.6231345918999978,344.80213226099977,None,344.80213226099977,None,0.7032304629001374,0.7231306848998429,0.8032019648999267,0.8231354299000486,0.9031847439000558,0.9231828998999845,1.0031517328998234,None,1.1031970259000445,1.1231294659000923,1.2031344168999567,1.2231527719000042,None,None,None,None,left,0.15262882600018202,1.1031970259000445,None,345.06212925599993,None,it_021522,001,2022_Feb_15_1208,Wolfram,2021.2.3,99.98880225387141,
-6,41,0,28,28,43,,,,,,,,,345.8621904739998,None,0.2031006809002065,0.22308954390018698,0.303125769899907,0.32307118390008327,0.4031033429000672,0.4231471959001283,0.5030759429000682,0.523195250900244,0.6025634039001488,0.6225146108999979,347.4316302970001,None,347.4316302970001,None,0.7025441098999181,0.7225548899000387,0.8025448328999119,0.8225219508999544,0.902539779900053,0.9224701579000794,1.0025307709001936,1.0225494588999027,1.1024791259001177,None,1.202561908899952,1.2225187719000132,1.302520652900057,1.3224563859002956,None,None,left,0.16698687300004167,1.2125103839002804,None,347.7016953819998,None,it_021522,001,2022_Feb_15_1208,Wolfram,2021.2.3,99.98880225387141,
-6,37,0,29,29,39,,,,,,,,,348.50158174299986,None,0.2028666978999354,0.22297889989977193,0.3028664278999713,0.322863924900048,0.4029435788997944,0.4229847988999609,0.5028548289001264,0.5228783979000582,0.6029753179000181,0.6229613438999877,350.74159929000007,None,350.74159929000007,None,0.7028646999001467,0.7229539319000651,0.8029423438997583,0.8229095869000957,0.9030060309000874,0.9229354328999761,1.002911733899964,1.0229729589000272,1.102872633900006,1.122969946899957,1.2029331788999116,1.2229700519001199,None,None,None,None,left,0.04115678799962552,1.1729108229001213,None,350.891631639,None,it_021522,001,2022_Feb_15_1208,Wolfram,2021.2.3,99.98880225387141,
200,10,0,30,30,1,,,,,,,,,351.69164436799974,None,0.20286888890041155,0.22294338090023302,0.30299005890037733,0.3229862099001366,0.4028505719002169,0.42295384690032733,0.5028928149004059,0.5229478709002251,0.6029708419000599,0.6228555429001972,352.9210885140001,None,352.9210885140001,None,0.7029155119003008,0.7229669849002676,0.8029161719000513,0.822846034900067,0.9028733469003782,0.9229232859001968,1.0028962679002689,1.0229198649003592,None,None,None,None,None,None,None,None,left,0.16747281900006783,0.9028733469003782,None,353.1912031689999,None,it_021522,001,2022_Feb_15_1208,Wolfram,2021.2.3,99.98880225387141,
-6,22,0,31,31,24,,,,,,,,,353.99105266800007,None,0.20308742089991938,0.22309321289958461,0.3030717358997208,0.32299343089971444,0.4030702408995239,0.42302649789962743,0.5031203308994918,0.5230363968998972,0.6029832858998816,0.6230698688996199,355.5112328659998,None,355.5112328659998,None,0.703086898899528,0.7230722798994975,0.8030444848996012,0.8230657428998711,0.90311143289955,None,1.0031119258997023,1.0230533988997195,1.1030963718999374,1.1230179768995185,1.2030162998999003,None,None,None,None,None,left,0.23058228299987604,1.0230533988997195,None,355.85119264900004,None,it_021522,001,2022_Feb_15_1208,Wolfram,2021.2.3,99.98880225387141,
-200,10,0,32,32,0,,,,,,,,,356.651099962,None,0.20294778890001908,0.22304138790013894,0.3029102069003784,None,0.4029945419001706,0.42308635090012103,0.5028929489003531,None,0.6030468069002382,0.6230689849003284,358.0105864809998,358.51060010599986,358.0105864809998,358.51060010599986,0.7030435108999882,0.7229620369002987,0.8029082889001984,0.8230366628999946,0.9029405109004074,0.9230185409001024,1.0030105789001027,1.0229759709000064,1.102891995900336,1.1228890859001694,1.203014806900228,1.2230449029002557,1.3029752839001958,1.3230547199000284,1.4030384809002499,1.4229206589002388,right,0.5679195019997678,0.9029405109004074,None,358.6806030120001,None,it_021522,001,2022_Feb_15_1208,Wolfram,2021.2.3,99.98880225387141,
-6,12,0,33,33,14,,,,,,,,,359.48055565799996,None,0.20323916490042393,0.2231577029001528,0.303158607900059,0.3233095269001751,0.40320891690043936,0.42328199690018664,0.5032140599000741,0.5232911949001391,0.6032576179004536,0.6232967309001651,361.7306076579998,362.23010757500015,361.7306076579998,362.23010757500015,0.7032914339001763,0.7231543939001313,0.8031857929004218,None,0.9031454879000194,0.9232615129003534,1.003175038900281,1.0226213529003871,1.1025883389002047,1.122587226900123,1.202577136900345,1.222644536900134,1.3026639299000635,1.322696986900155,None,None,left,0.412440398000399,0.9232615129003534,None,362.2500227370001,None,it_021522,001,2022_Feb_15_1208,Wolfram,2021.2.3,99.98880225387141,
-6,42,0,34,34,44,,,,,,,,,363.0501183450001,None,0.20244669889962097,0.22244798289966639,0.30243198690004647,0.32237262289982027,0.4023847598996326,0.4224563589000354,0.5024411338999926,0.5224423048998688,0.6024973068997497,0.6224375278998195,364.63009463299977,365.13004352999997,364.63009463299977,365.13004352999997,0.7024000368996894,0.7224021578999782,0.8025920508998752,0.8224411788996804,0.9024544898998101,0.9225318138996954,1.0024643069000376,1.0223979999000221,1.1025202588998582,None,1.2025131738996606,1.2224663458996474,1.3024817948999043,1.322477898899706,1.4024358268998185,1.4224861388997851,left,0.46032798899977934,1.2224663458996474,None,365.20005789900006,None,it_021522,001,2022_Feb_15_1208,Wolfram,2021.2.3,99.98880225387141,
-6,6,0,35,35,8,,,,,,,,,366.00012339199975,None,0.2028564308998284,0.2228452508998089,0.3028411359000529,0.3228504109001733,0.4029695289000301,0.4228422078999756,0.5028742548997798,0.5228828898998472,0.6022954349000429,0.6222497508997549,367.129535992,367.62953558900017,367.129535992,367.62953558900017,0.7022524798999257,0.7222066948997963,0.8022297949000858,None,0.9022852258999592,0.9222705829001825,1.0022297759001049,None,1.102276422900104,1.1222656279001058,1.2022594078998736,1.2224253219001184,1.3022310148999168,None,None,None,left,0.44911262800042095,0.8622675009000886,None,367.6795035989999,None,it_021522,001,2022_Feb_15_1208,Wolfram,2021.2.3,99.98880225387141,
-6,50,0,36,36,52,,,,,,,,,368.47964278100017,None,0.20299141789973874,None,0.3029962918999445,0.3229305118998127,0.40290513589980037,0.42292284589984774,0.5029376818997662,None,0.602968405899901,0.6229518658997222,370.0495454060001,370.5496453999999,370.0495454060001,370.5496453999999,0.7030200128997421,0.7230451419000019,0.803028005899705,0.8229230939000445,0.9029191388999607,0.922932972900071,1.0030061139000281,1.0229599598997083,1.1029906418998507,1.1229568978997122,1.202992650899887,1.2229488738998953,1.3029707898999732,1.3229469828997935,1.403022990899899,1.4229780528999072,right,0.46527558700017835,1.3029707898999732,None,370.61959205999983,None,it_021522,001,2022_Feb_15_1208,Wolfram,2021.2.3,99.98880225387141,
-6,43,0,37,37,45,,,,,,,,,371.419528724,None,0.2019784419003372,0.22191711189998387,0.30196511190024466,0.3219581519001622,0.4019608229000369,0.42202615690030143,0.5020320179000919,0.5220185859002413,0.6019066189001023,None,373.03898432799997,None,373.03898432799997,None,0.7020691869001894,0.721956328899978,0.8020179539003038,0.8220667809000588,0.901910656900327,None,1.0019093759001407,1.0219169988999965,1.101935247900201,None,1.2020461889001126,1.2219243719000588,1.3019753639000555,1.3219426589002978,1.4019640229003016,1.4220510319000823,left,0.33345997800006444,1.2318963658999564,None,373.4790287850001,None,it_021522,001,2022_Feb_15_1208,Wolfram,2021.2.3,99.98880225387141,
-6,10,0,38,38,12,,,,,,,,,374.2790615409999,None,0.20308391390017277,0.22311317689991483,0.3031525499000054,0.32315908390000914,0.40313665790017694,0.42312798090006254,0.5031382859001496,0.5230906779001998,0.603120849899824,0.6231431148999036,375.6390211779999,None,375.6390211779999,None,0.7031993918999433,0.7231488768998133,0.8030934139001147,0.8231796359000327,0.9032041458999629,0.9231609378998655,1.0031413968999914,None,1.1030862348998198,None,None,None,None,None,None,None,left,0.24207372599994414,0.9032041458999629,None,375.988986329,None,it_021522,001,2022_Feb_15_1208,Wolfram,2021.2.3,99.98880225387141,
-6,7,0,39,39,9,,,,,,,,,376.78904634599985,None,0.20301728789991103,0.22295281689957847,0.3029988368998602,0.3230175658995904,0.40301189089996114,0.42305198889971507,0.5029940319000161,0.5230291298998964,0.6029793228999552,0.6229561668997121,378.358519119,378.8584522850001,378.358519119,378.8584522850001,0.7030163158997311,0.7230532848998337,0.8030495128996336,0.8229463948996454,0.9030063158998018,0.9230045068998152,1.0029929628999525,1.0230049068995868,1.1030445038995822,1.1230092188998242,1.2030328428995745,1.2230042588998913,None,None,None,None,left,0.40262407799991706,0.8730278568996255,None,378.86848686899975,None,it_021522,001,2022_Feb_15_1208,Wolfram,2021.2.3,99.98880225387141,
-6,9,0,40,40,11,,,,,,,,,379.6684765159998,None,0.2031133609002609,0.22311964390019057,0.30312902590048907,0.32326186390037037,0.40319881090044873,0.42318588290027037,0.5031897309004307,0.5231698029001564,0.60313471390009,0.6232050689004609,381.09857489900014,None,381.09857489900014,None,0.7032271029002004,0.7231349599001078,0.803258289900441,0.8231938869002988,0.903158280900243,0.9231627889002993,1.0031612269003745,None,1.1031436739003766,None,None,None,None,None,None,None,left,0.20511500599968713,0.8931789499001752,None,381.4185493770001,None,it_021522,001,2022_Feb_15_1208,Wolfram,2021.2.3,99.98880225387141,
-6,4,0,41,41,6,,,,,,,,,382.2180525399999,None,0.20289810089980165,0.2229576679001184,0.3029362509000748,0.32303002390017355,0.4029792548999467,0.4229581769000106,0.50290385290009,0.5229166938997878,0.6029884918998505,0.622998891899897,383.59798683400004,None,383.59798683400004,None,0.7030107178998151,0.7229684169001303,0.8029662768999515,0.822927622899897,0.9029835819001164,0.922954881899841,1.0030100609001238,None,1.1028929558997334,1.1229670069001259,None,None,None,None,None,None,left,0.27066441200031477,0.8429101688998344,None,383.978091899,None,it_021522,001,2022_Feb_15_1208,Wolfram,2021.2.3,99.98880225387141,
-6,8,0,42,42,10,,,,,,,,,384.7781550519999,None,0.20287676589987313,None,0.3028928868998264,0.32286508690003757,0.4029613999000503,0.4229970009000681,0.5030038669001442,0.5230120588998943,0.6028763418999006,None,386.6082462449999,None,386.6082462449999,None,0.7028619328998502,None,0.8028817599001741,0.8230248609002047,0.9029722588998084,0.9229907728999933,1.003005303899954,1.0230088848998093,None,None,None,None,None,None,None,None,left,0.18587898100031452,0.8829998658998193,None,386.8980623709999,None,it_021522,001,2022_Feb_15_1208,Wolfram,2021.2.3,99.98880225387141,
-6,27,0,43,43,29,,,,,,,,,387.6975634370001,None,0.2029906099000982,0.22298329090017432,0.3030495479001729,0.3230184549001933,0.4030521538998073,0.4229518889001156,0.5030034608998903,0.5230464608998773,0.6030175238997799,0.6230427988998599,389.93757036399984,None,389.93757036399984,None,0.7029489528999875,0.7230304078998415,0.8030085138998402,0.8230255079001836,0.9030383048998374,0.9229740178998327,1.0029803549000462,1.0230452839000463,1.102991480900073,1.1230446978997861,1.2029935359000774,1.2229298069000833,None,None,None,None,left,0.18612965000011172,1.0729483958998571,None,390.22756375200015,None,it_021522,001,2022_Feb_15_1208,Wolfram,2021.2.3,99.98880225387141,
-6,24,0,44,44,26,,,,,,,,,391.0276367010001,None,0.20286014189969137,0.22284086789977664,0.30277264189999187,0.32283927489970665,0.4022464568997748,0.42218350389975967,0.5022082318996581,0.5221797468998375,0.6022017578998202,0.6222387169000285,392.54701436799996,None,392.54701436799996,None,0.7024001168997529,0.722222162899925,0.8022151738996399,0.8222447428997839,0.9022481388997221,0.9221779308995792,1.0022566258999177,1.0221816088997002,1.102186835899829,None,1.202197849899676,None,None,None,None,None,left,0.19800300099996093,1.0422135668995907,None,392.8470082959998,None,it_021522,001,2022_Feb_15_1208,Wolfram,2021.2.3,99.98880225387141,
-6,31,0,45,45,33,,,,,,,,,393.6470910610001,None,0.20312618490015666,0.22316708190055579,0.3030558199002371,0.323087334900265,0.4030798819003394,0.42308171990043775,0.5030640889003735,0.5230818649001776,0.6031019779002236,0.6231258039001659,395.0669533119999,None,395.0669533119999,None,0.7031462929003283,0.723097842900188,0.8030792539002505,0.8230686549004531,0.9031119389001105,0.9231655089001833,1.0030287569002212,1.0230850019001991,1.103067433900378,None,1.203132380900115,1.2231818299001134,None,None,None,None,left,0.17542080400016857,1.1130795139001748,None,395.34698272100013,None,it_021522,001,2022_Feb_15_1208,Wolfram,2021.2.3,99.98880225387141,
-6,15,0,46,46,17,,,,,,,,,396.14700397900015,None,0.2028770558999895,0.22289906589958264,0.3029016558998592,0.32291830889971607,0.4029165248998652,0.42294407489998775,0.5022964248996686,0.5222676498997316,0.6023300278998249,0.6222989108996444,397.33650593899984,None,397.33650593899984,None,0.7024963308999759,0.7223774168996897,0.802301218899629,None,0.9023656058998313,0.9223536178997165,1.0024137458999576,1.0222883738997552,1.1023726239000098,1.122383261899813,1.2023369228995762,None,None,None,None,None,left,0.25717638500009343,0.9524030078996475,None,397.69646877900004,None,it_021522,001,2022_Feb_15_1208,Wolfram,2021.2.3,99.98880225387141,
-6,25,0,47,47,27,,,,,,,,,398.4964194959998,None,0.20261051889974624,0.2225936528998318,0.3026308408998375,0.32262329989953287,0.40261458089980806,0.42254997489953894,0.5026116218996322,0.5226001338996866,0.6025935108996237,0.6225672188998033,400.46649064899975,None,400.46649064899975,None,0.7025738368997736,0.7226267898995502,0.8026492188996599,0.8226329948997773,0.9026465088995792,0.9225995338997564,1.0026046718994621,1.0226026838995494,1.102691669899741,1.12256950389974,1.202706545899673,1.2226046918995053,None,None,None,None,left,0.16472284600013154,1.052567145899502,None,400.736615455,None,it_021522,001,2022_Feb_15_1208,Wolfram,2021.2.3,99.98880225387141,
-6,5,0,48,48,7,,,,,,,,,401.5364272050001,None,0.20244691290008632,None,0.3024672178999026,None,0.40243429289967025,None,0.5024626778999846,0.5224213288997817,0.6024487108998073,None,402.62593122399994,None,402.62593122399994,None,0.702507648899882,0.7225471128999743,0.8024244878997706,0.8224554998996609,0.9025430859001062,0.9224113708996811,1.0025728248997439,1.0224549908998597,None,None,None,None,None,None,None,None,left,0.21013749300027484,0.8524589408998509,None,402.9460232030001,None,it_021522,001,2022_Feb_15_1208,Wolfram,2021.2.3,99.98880225387141,
-6,13,0,49,49,15,,,,,,,,,403.74602700100013,None,0.20291547889974026,None,0.3029483168998013,0.3230386108998573,0.40302903589963535,0.42293723889997636,0.502902765899762,None,0.6029987498995979,0.6229774548996829,404.94614889700006,None,404.94614889700006,None,0.7030288998998913,0.722945753899694,0.8028893108999,None,0.9029042038996522,0.9229918348996762,1.0030386648995773,1.0230529428999944,None,None,None,None,None,None,None,None,left,0.12885286200025803,0.9329014608997568,None,405.17600739,None,it_021522,001,2022_Feb_15_1208,Wolfram,2021.2.3,99.98880225387141,
-6,29,0,50,50,31,,,,,,,,,405.97606628099993,None,0.20319867790021817,0.2232160439002655,0.30326137890006066,0.3231484009002088,0.4031944829002896,0.42321786289994634,0.5032066429002953,0.5231953678999162,0.6031875199000751,0.6232397829003276,407.2753918399999,None,407.2753918399999,None,0.703193074900355,0.7226287718999629,0.8025728549000632,None,0.9026653209002689,0.9225956139002847,1.002633901900026,1.0226188558999638,1.1025990829002694,None,1.20262643390015,1.2226577968999663,None,None,None,None,left,0.19603588500012847,1.0926828509000188,None,407.57543258999976,None,it_021522,001,2022_Feb_15_1208,Wolfram,2021.2.3,99.98880225387141,
-6,11,0,51,51,13,,,,,,,,,408.375395392,None,0.20319812790012293,0.2232657629001551,0.30323044189981374,0.32321747190007954,0.40327583989983395,0.42328995090019816,0.5033003388998623,0.5232552999000291,0.6032779748998109,0.6232112019001761,409.52548297600015,None,409.52548297600015,None,0.7032769119000477,0.7233006079000006,0.8032220379000137,0.8233029549001003,0.9032555838998633,None,1.0032922578998296,1.0232197548998556,None,None,None,None,None,None,None,None,left,0.13922289799984355,0.9134057178998773,None,409.7655023379998,None,it_021522,001,2022_Feb_15_1208,Wolfram,2021.2.3,99.98880225387141,
-6,48,0,52,52,50,,,,,,,,,410.56541997099976,None,0.20287869889989452,0.22283422090004024,0.3028678869000032,0.3227296309000849,0.40284944890026964,0.42281593389998307,0.5028123909000897,0.5228291969001475,0.6028472639000029,0.6228588418998697,412.19503472099996,None,412.19503472099996,None,0.7029036858998552,None,0.8028554228999383,0.8228381778999392,0.9028154139000435,0.9228306729000906,1.0022317009002109,1.0222388999000032,1.1022867439000947,None,1.2022624068999903,1.2222087838999869,1.3022418138998546,1.322227643900078,1.4021829179000633,1.4221659378999902,left,0.19278832999998485,1.2822441798998625,None,412.4950437540001,None,it_021522,001,2022_Feb_15_1208,Wolfram,2021.2.3,99.98880225387141,
-6,35,1,0,53,37,,,,,,,,,413.2950141729998,None,0.20294271989951085,0.22295575289990666,0.3028692578996015,0.3229542858998684,0.4029484468996998,0.4229684088995782,0.5029492048997781,0.522868994899909,0.6029566708998573,0.62290793189959,414.65519076300006,None,414.65519076300006,None,0.7028667398994912,0.7229005348995088,0.8028704758999083,0.8229319008996754,0.90293759089991,0.9229584958998203,1.0029881318996559,1.0229860998997538,1.102936071899876,1.1229872048998004,1.2029439288999129,1.2228903278996768,1.3029764198995508,1.3228616988994872,None,None,left,0.20779335399993215,1.152874508899913,None,414.96500189100016,None,it_021522,001,2022_Feb_15_1208,Wolfram,2021.2.3,99.98880225387141,
-6,44,1,1,54,46,,,,,,,,,415.76501849199985,None,0.20282546789985645,None,0.3029252318997351,None,0.4028947398996934,0.4228781368997261,0.502942292899661,0.5229571278996445,0.6028093618997445,0.6228889448998416,417.3143575949998,None,417.3143575949998,None,0.7029240068995932,0.7228594268999586,0.8029563828995379,0.8228924628997447,0.9023151148999204,0.9224607768996975,1.0024017248997552,1.0223050228996726,1.10228192689965,None,1.2022975248996772,1.2223559038998246,1.3023740418998386,1.3223430448997533,1.4024419258998932,1.4223471428995254,left,0.31533648699996775,1.242386342899863,None,417.73443559199995,None,it_021522,001,2022_Feb_15_1208,Wolfram,2021.2.3,99.98880225387141,
-6,36,1,2,55,38,,,,,,,,,418.5343667729999,None,0.20347706790062148,0.2232416349002051,0.3031403079003212,0.3231556919004106,0.4031120279005336,0.42317404090044874,0.5031476699004997,0.5231891019002433,0.6031466859003558,0.6232015049004076,420.024488905,None,420.024488905,None,0.7034762509006214,0.7232156409004347,0.8032323149004696,0.8231625229004749,0.9033665989004476,0.9231733169003746,1.0031485339004576,1.0231608929002505,1.1032043219001935,1.1232269469005587,1.2035322059005011,1.2231629489006082,1.3031722369005365,None,None,None,left,0.14778696200028207,1.1631923149002432,None,420.2745569210001,None,it_021522,001,2022_Feb_15_1208,Wolfram,2021.2.3,99.98880225387141,
-6,27,1,3,56,29,,,,,,,,,421.07445879199986,None,0.2025539698997818,0.2225381039002059,0.3025990739001827,0.32261569489992326,0.4025441488997785,0.4225548098997933,0.502658733899807,0.522530511900186,0.601955611899939,0.6220627879001768,422.4239176450001,None,422.4239176450001,None,0.7020228719002262,0.72193307489988,0.8020277588998397,0.8219775929001116,0.9019401219002248,0.92201578589993,1.001995898900077,1.0219569769001282,1.1020180359000733,1.1220054558998527,1.202054034899902,None,None,None,None,None,left,0.13336426799969558,1.0720216689001063,None,422.67390086800015,None,it_021522,001,2022_Feb_15_1208,Wolfram,2021.2.3,99.98880225387141,
-6,9,1,4,57,11,,,,,,,,,423.47390757999983,None,0.20318995489969893,None,0.30329847189977954,0.3232916258998557,0.4032825719000357,0.4232385528998748,0.503190191900103,None,0.603359842899863,0.6232547928998429,424.6139465209999,None,424.6139465209999,None,0.7032132518997969,None,0.8032836418997249,0.82320714890011,0.9032021278999309,0.9232574308998664,None,None,None,None,None,None,None,None,None,None,left,0.0925443159999304,0.8932116108999253,None,424.81395533600016,None,it_021522,001,2022_Feb_15_1208,Wolfram,2021.2.3,99.98880225387141,
-6,24,1,5,58,26,,,,,,,,,425.61401653099983,None,0.2026131179004551,0.222587931900307,0.3026454809000825,0.3226421619001485,0.4026500279001084,None,0.5026375229003861,None,0.6027656599003421,0.6226396939005099,429.85333569700015,430.3533298980001,429.85333569700015,430.3533298980001,0.7026422259004903,None,0.8026977129002262,0.8225771539005109,0.9026742659002593,0.922611653900276,1.0026414569001645,1.0226744509004675,1.1026371299003586,1.1226514879003844,1.2025765199005036,1.2226424089003558,1.3026269199003764,1.3225826959001097,1.4026172769004006,1.4226717379001457,left,0.6689862030002587,1.0426218349002738,None,430.62342395199994,None,it_021522,001,2022_Feb_15_1208,Wolfram,2021.2.3,99.98880225387141,
-6,4,1,6,59,6,,,,,,,,,431.423428137,None,0.2032976919003886,0.22322465490060495,0.3033389539004929,0.32324516190055874,0.4032774609004264,0.42321873190076076,0.50326300190045,0.5233186639006817,0.6033041349005543,0.6233750909004812,433.2928523790001,None,433.2928523790001,None,0.7033112379003796,0.7232370109004478,0.8033081839007536,0.82328915790049,0.9032657399006894,0.9232804859007047,1.0033102159004557,1.0233322019007574,1.1033334689004732,1.1232780759005436,1.203327485900445,None,None,None,None,None,left,0.3681588440003907,0.8432724679005332,None,433.7729252449999,None,it_021522,001,2022_Feb_15_1208,Wolfram,2021.2.3,99.98880225387141,
-200,10,1,7,60,0,,,,,,,,,434.57293010800004,None,0.20295020089997706,0.2229261349002627,0.3028708668998661,0.32288738390025173,0.4029513729001337,0.422896222899908,0.5028714878999381,0.5229500098998869,0.6029279239000971,0.6229423099002815,435.6829874780001,436.18294276200004,435.6829874780001,436.18294276200004,0.702949648899903,0.7229611969000871,0.8030499978999615,0.8229315788998974,0.9029732549001892,0.9229347349000818,1.002952354900117,1.0229480328998761,1.1028753438999956,1.1229609539000194,1.20292679890008,1.2230188979001468,1.3029184479000833,1.3229667379000603,1.4029948549000437,1.422969886899864,right,0.6892638909998823,0.9029732549001892,None,436.4729022639999,None,it_021522,001,2022_Feb_15_1208,Wolfram,2021.2.3,99.98880225387141,
-6,7,1,8,61,9,,,,,,,,,437.2724525939998,None,0.20304787090026366,0.22291027090022908,0.30301627890003147,0.32298407989992484,0.4029787428999043,0.4230592768999486,0.5030719309002052,0.5230017328999566,0.6029257468999276,0.6229146279001725,438.41238723800006,None,438.41238723800006,None,0.7030261779000284,0.7229822868998781,0.8029335068999899,0.8230726049000623,0.9029807439001161,0.9229949199002476,1.0030564639000659,1.0230008189000728,1.103066291900177,1.123035526899912,None,None,None,None,None,None,right,0.3111519340000086,0.8728954328998952,None,438.8324700479998,None,it_021522,001,2022_Feb_15_1208,Wolfram,2021.2.3,99.98880225387141,
-6,47,1,9,62,49,,,,,,,,,439.632474557,None,0.20320513789965844,0.2231358448998435,0.30327437789947,0.3231407108996791,0.40315818889985167,0.4231444568995357,0.5032412628997918,0.5231944528995882,0.6031949158996213,0.6232512418996521,441.13238573399985,441.63239034900016,441.13238573399985,441.63239034900016,0.7031769548998454,0.7232554728998366,0.8031375848995594,0.8231251368997619,0.9031978908997189,0.9231329088997882,1.0032034858995758,1.0231557548995625,1.1031974708994312,1.1231794558998445,1.2031302538998716,1.2231890508996912,1.303193336899767,1.3232334338995315,1.403128140899753,1.4231216178995965,left,0.4035872399999789,1.2731287748997602,None,441.6424393839998,None,it_021522,001,2022_Feb_15_1208,Wolfram,2021.2.3,99.98880225387141,
-6,39,1,10,63,41,,,,,,,,,442.4417879990001,None,0.20308141389978118,0.22305860189999294,0.30307756589991186,0.3230318598998565,0.4030271218998678,0.4231773449000684,0.5030787158998464,0.5231439989001956,0.6030904418998944,0.6230856979000237,443.97179483399987,444.47180253099987,443.97179483399987,444.47180253099987,0.7031169198999123,0.7230802018998475,0.8031439148999198,0.8230619749001562,0.9030662908999147,0.9230692399000873,1.0030394938999052,1.0230022339001152,1.103056442900197,1.1230496139000934,1.2030927429000258,1.2230662768997718,1.3030712229001438,1.323089543900096,1.4030924099001822,1.423029472899998,right,0.43286092200014537,1.1930920528998286,None,444.51181644999997,None,it_021522,001,2022_Feb_15_1208,Wolfram,2021.2.3,99.98880225387141,
-6,31,1,11,64,33,,,,,,,,,445.311833364,None,0.20311574490051498,0.22314371390075394,0.3030890669006112,0.32314694590058934,0.4031167139005447,0.4231859839005665,0.5031448539007215,0.5231312389005325,0.6031945409004038,0.6231321349005157,446.63185125200016,447.1313693259999,446.63185125200016,447.1313693259999,0.7031405519005602,0.7231490049007334,0.803172810900378,0.823161844900369,0.9031363899007374,0.9231283589006125,1.0031594739007232,None,1.1030911859006665,1.123080504900372,1.2031162669004516,1.223150603900649,1.3031790169006854,1.3231573859006858,1.4031849779007644,1.4231176299003891,left,0.6977299479999601,1.113127190900741,None,447.43142174600007,None,it_021522,001,2022_Feb_15_1208,Wolfram,2021.2.3,99.98880225387141,
-6,29,1,12,65,31,,,,,,,,,448.2313463229998,None,0.20291493189915855,None,0.3029047978993731,None,0.40293264889942293,None,0.5029500748992177,0.5229235488991435,0.602911357899302,None,449.5514603319998,None,449.5514603319998,None,0.7030404908991841,0.7229124758991929,0.8029853918992558,0.8230976988993461,0.9030460758995105,0.9230382528994596,1.0030842648993712,1.0229785298993193,1.102939065899136,1.1231023918994651,1.2030237988992667,1.2230517308994422,1.3030360638995262,1.3230001588995037,1.4029143298994313,1.4229712568994728,left,0.37707410899975,1.093001205899327,None,450.0314443980001,None,it_021522,001,2022_Feb_15_1208,Wolfram,2021.2.3,99.98880225387141,
-6,1,1,13,66,3,,,,,,,,,450.8313555509999,None,0.2027775338997344,0.2227936528997816,0.3028204328998072,0.322867893899911,0.40285481289993186,None,0.5027988288998131,0.5227987159000804,0.6028054248999979,0.6228359208998882,452.0213795589998,None,452.0213795589998,None,0.7028198489001625,0.722865715899843,0.8022933288998502,0.8222853618999579,0.9022348669000166,None,1.0025216918998012,1.022329070900014,1.1022540048998053,1.122285230900161,None,None,None,None,None,None,left,0.31554381300020395,0.8122953388997303,None,452.44077985900003,None,it_021522,001,2022_Feb_15_1208,Wolfram,2021.2.3,99.98880225387141,
-6,28,1,14,67,30,,,,,,,,,453.24080939999976,None,0.20297892489998048,None,0.3030905898999663,0.3230104178996953,0.403036997900017,0.42299149889959153,0.503054156899907,0.5230210318995887,0.6029635208997206,0.6230202788997303,454.9108211869998,None,454.9108211869998,None,0.7030650558999696,None,0.8029839268997421,0.8230127948995687,0.9030495158999656,0.923029455899723,1.002936026899988,None,1.1030374738998034,1.1229405778999535,1.2030375208996702,1.223120267899958,None,None,None,None,left,0.19258466000019325,1.0830039468996802,None,455.21089087400014,None,it_021522,001,2022_Feb_15_1208,Wolfram,2021.2.3,99.98880225387141,
-6,45,1,15,68,47,,,,,,,,,456.01081561699993,None,0.20269166790012605,0.2226451069000177,0.3025802499000747,0.3226224128998183,0.4026602388998981,0.42264170789985656,0.5026524729000812,0.5225652018998517,0.6026281358999768,0.6225605139002255,458.20031405400005,None,458.20031405400005,None,0.7028403078998053,0.7227642129000742,0.8026474519001567,0.8226356799000314,0.9027119879001475,0.9226593599000807,1.0026485109001442,1.02261077689991,1.102611929899922,1.1225764259002062,1.202644036899983,1.2225787829002002,1.3027090878999843,1.3225984249002067,1.402665382900068,1.4227198338999187,left,0.1993851980000727,1.252548374900016,None,458.5004438000001,None,it_021522,001,2022_Feb_15_1208,Wolfram,2021.2.3,99.98880225387141,
-6,30,1,16,69,32,,,,,,,,,459.3003377079999,None,0.20280212989973734,None,0.302845818899641,0.3228772638999544,0.4029472989000169,0.4228020108998862,0.5028380428998389,0.522869137899761,0.6029790958996273,0.6229434668998692,460.9404054759998,None,460.9404054759998,None,0.7028402508999534,0.7229024388998369,0.8028226128999449,0.8228411178997703,0.9028097288996833,0.9228466508998281,1.00292666489986,1.0229430289000447,1.1027927068998906,None,1.2028691819000414,1.2228550238996831,None,None,None,None,left,0.1820414490002804,1.1027927068998906,None,461.23036805699985,None,it_021522,001,2022_Feb_15_1208,Wolfram,2021.2.3,99.98880225387141,
200,10,1,17,70,1,,,,,,,,,462.03044511200005,None,0.20309695490004742,0.22313366190019224,0.3030839229004414,0.32312915590000557,0.40307072190034887,0.42312648590041135,0.5030557589002456,0.5230571239003439,0.6030454099000053,0.6231621029000962,463.4698544940002,None,463.4698544940002,None,0.7030961399000262,0.7230587359003948,0.8030945339000937,0.8230828519003808,0.9031452419003472,0.9230354829001044,1.0030888409000909,None,1.1030678879001243,None,None,None,None,None,None,None,left,0.2289123240002482,0.9031452419003472,None,463.79987414900006,None,it_021522,001,2022_Feb_15_1208,Wolfram,2021.2.3,99.98880225387141,
-6,25,1,18,71,27,,,,,,,,,464.599852286,None,0.20310588389975237,0.22307684289989993,0.30309308289997716,0.32311225690000356,0.4031280128997423,0.42312703990000955,0.5031009048998385,None,0.6030564818997846,0.62309212989976,466.7598597209999,None,466.7598597209999,None,0.7030611568998211,0.7230799318999743,0.8031894928999463,0.8231454079000287,0.9031604698998308,0.9231296989000839,1.0030600188997596,None,1.1031744529000207,1.1230809239000337,1.2031837368999732,1.2231005468997864,None,None,None,None,left,0.17835108999997829,1.0532777808998617,None,467.0398266789998,None,it_021522,001,2022_Feb_15_1208,Wolfram,2021.2.3,99.98880225387141,
-6,10,1,19,72,12,,,,,,,,,467.83925776199976,None,0.20306325490037125,None,0.3030017229002624,0.3230446489001224,0.4030264909001744,0.4230060459003653,0.5031298269000217,0.5230457939001099,0.6031206779002787,0.6230353279001974,469.3492095779998,None,469.3492095779998,None,0.7031239819002622,0.7231643599002382,0.8031994679004129,0.8230263299001308,0.9030494999001348,0.9229955259002054,1.0030094109001766,1.023046608900131,None,None,None,None,None,None,None,None,left,0.15403301700007432,0.9030494999001348,None,469.6092539000001,None,it_021522,001,2022_Feb_15_1208,Wolfram,2021.2.3,99.98880225387141,
-6,33,1,20,73,35,,,,,,,,,470.409225115,None,0.2030592158998843,0.223017424900263,0.3030772668998907,0.32310738790010873,0.40310007090010913,0.42310158889995364,0.5030610949002039,0.5230881658999351,0.6030206008999812,0.6230384508999123,471.8493423109999,None,471.8493423109999,None,0.7030667049002659,0.7230691008999202,0.8030696869000167,0.8231134328998451,0.9031129219001741,None,1.0031261599001482,1.023054374899857,1.1030532129002495,None,1.203120637900156,1.223263708900049,1.3033040639002138,1.3225167488999432,1.4024786118998236,1.422697941899969,left,0.3766528700002709,1.1330615949000276,None,472.3287890209999,None,it_021522,001,2022_Feb_15_1208,Wolfram,2021.2.3,99.98880225387141,
-6,20,1,21,74,22,,,,,,,,,473.1287415329998,None,0.20301145590019587,0.22296997889998238,0.3029552969001088,0.3229483789000369,0.40292612090024704,None,0.5029653879000762,0.5229081668999243,0.6030328228998769,0.6231192108998584,474.918824547,None,474.918824547,None,0.7029490989002625,None,0.8029747048999525,None,0.9029997728998751,0.9230402738999146,1.0029928008998468,1.0229135719000624,1.1029974639000102,1.122964391900041,1.2029744138999376,1.223041965899938,None,None,None,None,left,0.254534238999895,1.0029928008998468,None,475.2788243320001,None,it_021522,001,2022_Feb_15_1208,Wolfram,2021.2.3,99.98880225387141,
-6,2,1,22,75,4,,,,,,,,,476.0788250730002,None,0.20308466790038437,0.22242222290060454,0.3025185269002577,0.3224180999004602,0.40235929290020067,0.4224481029004892,0.5023963379003362,0.522420482900543,0.6024584339002104,0.6223934179006392,477.64824034000003,None,477.64824034000003,None,0.7023934149005981,None,0.8024344379005015,0.8224242139003763,0.9024392859005275,0.9224420199002452,1.0024688659004823,1.0226824519004367,None,None,None,None,None,None,None,None,left,0.2119812840001032,0.8224242139003763,None,477.96839998199994,None,it_021522,001,2022_Feb_15_1208,Wolfram,2021.2.3,99.98880225387141,
-6,19,1,23,76,21,,,,,,,,,478.768352222,None,0.20311561089965835,0.22313246889962102,0.3031129798996517,0.3231048818997806,0.4031236928999533,0.4231388278999475,0.5030466048997368,0.5230732088998593,0.6031222528995386,0.6230410378998386,480.0882565850002,None,480.0882565850002,None,0.7032462878996739,None,0.803164484899753,0.8231513488995006,0.9030975798996224,0.9231567938995795,1.0031681608998042,1.0230474118998245,1.1031213618998663,1.1230938798998977,1.2030481178999253,None,None,None,None,None,left,0.20388728299985814,0.9930471018997196,None,480.39829588600014,None,it_021522,001,2022_Feb_15_1208,Wolfram,2021.2.3,99.98880225387141,
-6,3,1,24,77,5,,,,,,,,,481.19831842999974,None,0.20320616889966914,0.22316540990004796,0.30317414689989164,0.3232134118998147,0.4031908148999719,None,0.5025956878998841,None,0.6027302448997034,0.6226724159000696,482.41773209899975,None,482.41773209899975,None,0.7026820338996913,0.7226031588998012,0.8025953019000553,0.822591556900079,0.9026836908997211,0.9226006028998199,1.0025931769000636,1.0226039578997188,None,None,None,None,None,None,None,None,left,0.2593716999999742,0.8325746648997665,None,482.77783746099976,None,it_021522,001,2022_Feb_15_1208,Wolfram,2021.2.3,99.98880225387141,
-6,46,1,25,78,48,,,,,,,,,483.57780540800013,None,0.20306539290004366,0.22303712190023361,0.3031507439000052,0.32307385190006244,0.40313193490010235,0.4230991868998899,0.5031771579001543,0.5230982539001161,0.6031225249003,0.6230933429001198,485.36774228700006,None,485.36774228700006,None,0.7031850328999099,0.7231532938999408,0.803075734900176,0.8231482998999127,0.9032073649000267,0.9231781649000368,1.0031191199000205,1.0232268499003112,1.1032128138999724,1.1231962839001426,1.2031405638999786,1.2231820678998702,1.3031093739000426,1.323223913900165,1.4031348849002825,1.423059287900287,left,0.3134550160002618,1.2631578589002856,None,485.787868895,None,it_021522,001,2022_Feb_15_1208,Wolfram,2021.2.3,99.98880225387141,
-6,26,1,26,79,28,,,,,,,,,486.58780897099996,None,0.20322407790035868,0.22274762990036834,0.3028000289004922,0.3227655169002901,0.4026530889004789,None,0.5027115519005747,0.5226427289003368,0.6026974739002071,0.6228375559003325,487.8972467949998,None,487.8972467949998,None,0.7026933919005387,0.7228242849005255,0.8026716459003183,0.8228130239003804,0.9028011979003168,0.9227802699006133,1.0027061309006058,1.0227010809003332,1.102626455900463,1.122745548900184,1.2026970589004122,1.2226382369003659,None,None,None,None,left,0.1913780479999332,1.062789112900191,None,488.1972590559999,None,it_021522,001,2022_Feb_15_1208,Wolfram,2021.2.3,99.98880225387141,
-6,14,1,27,80,16,,,,,,,,,488.9972705119999,None,0.2027251568997599,0.2227396258999761,0.3028213579000294,None,0.40275049389993,0.4228222509000261,0.5027480418998493,0.5227958878999743,0.6027209858998503,0.6227278768997166,490.52732580400016,None,490.52732580400016,None,0.7027374618996873,0.7227849478999815,0.80290810589986,0.8227930209000078,0.9028616708997106,0.9228012398998544,1.0028075568998247,None,1.1027022248999856,None,None,None,None,None,None,None,left,0.2052390439998817,0.9427321848997963,None,490.8372123449999,None,it_021522,001,2022_Feb_15_1208,Wolfram,2021.2.3,99.98880225387141,
-6,15,1,28,81,17,,,,,,,,,491.63731961899975,None,0.20234622489988396,0.22236617289991045,0.30242221289972804,0.3223777838998103,0.4023576178997246,0.42239485990012327,0.5024202058998526,0.5223150978999911,0.6024033738999606,0.6224613998997484,492.84674410399975,None,492.84674410399975,None,0.7024012578999645,0.7223765118997107,0.802425797900014,0.8224618229000953,0.9023246298997947,0.9223801008997725,1.0024137268997038,1.0224383198997202,1.1024306689000696,1.122380744900056,1.2024013218997425,1.2223368598997695,None,None,None,None,left,0.27080678299989813,0.9523068308999427,None,493.2166406450001,None,it_021522,001,2022_Feb_15_1208,Wolfram,2021.2.3,99.98880225387141,
-6,40,1,29,82,42,,,,,,,,,494.016686895,None,0.2033389768998859,0.2232595379000486,0.3033054409002034,0.3233336509001674,0.4032603558998744,0.423294501899818,0.5033427999001105,0.5233355078999011,0.6032875709001928,0.6232784069002264,496.0367432600001,None,496.0367432600001,None,0.703236871900117,0.7232466249001845,0.8033247099001528,0.8233050709000054,0.9032616599001813,0.9233284178999384,1.0033752189001461,1.0232303009001953,1.1033460619000834,1.1233313169000212,1.2033281139001701,None,1.303274230900115,1.3232461449001676,1.4032742408999184,1.4232234978999259,left,0.30901794200008226,1.2033281139001701,None,496.44673491699996,None,it_021522,001,2022_Feb_15_1208,Wolfram,2021.2.3,99.98880225387141,
-6,12,1,30,83,14,,,,,,,,,497.24614310900006,None,0.20312529589955375,0.22318928589993448,0.3032594548999441,0.32323669589959536,0.40320123789979334,0.4231635558999187,0.5031201108995447,0.5231676068997331,0.6034280998997019,0.6233326278997993,498.4763133199999,498.9762253969998,498.4763133199999,498.9762253969998,0.7032395458995779,None,0.8032081408996419,None,0.9031987898997613,0.9231536778997906,1.0032305948998328,1.023196188899874,1.1031745028999467,None,1.2032295198996508,1.2231738888999644,1.3032332328998564,1.3231939218999287,None,None,left,0.42141822999974465,0.9231536778997906,None,499.00618797100014,None,it_021522,001,2022_Feb_15_1208,Wolfram,2021.2.3,99.98880225387141,
-6,22,1,31,84,24,,,,,,,,,499.8061788509999,None,0.20307684389990754,0.22305757089998224,0.3030103609003163,0.3230419869000798,0.403029202900143,0.423078605900173,0.503006748900134,0.5229810329001339,0.6031059739002558,0.6230716789000326,501.0961989540001,None,501.0961989540001,None,0.7030657498999062,None,0.8030341649000547,0.8229862238999885,0.9030019759002244,None,1.0030018729003132,1.0229802919002395,1.1029736139003035,None,1.2031132739002715,1.223130900900287,1.3034058169000673,1.323206783900332,None,None,left,0.3441662919999544,1.0229802919002395,None,501.546202513,None,it_021522,001,2022_Feb_15_1208,Wolfram,2021.2.3,99.98880225387141,
-6,5,1,32,85,7,,,,,,,,,502.3456948469998,None,0.20314663490034945,None,0.3032511819001229,0.32327004190028674,0.4032944929003861,None,0.503306497900212,0.5231449539001005,0.6032980349000354,0.6231602369002758,503.50567749599986,None,503.50567749599986,None,0.703288662900377,0.7232525959002487,0.8032772379001472,0.8231924049000554,0.9031728589002341,0.9232128099001784,1.003230829900076,None,None,None,None,None,None,None,None,None,left,0.15269574400008423,0.8531709049002529,None,503.76573229199994,None,it_021522,001,2022_Feb_15_1208,Wolfram,2021.2.3,99.98880225387141,
-6,21,1,33,86,23,,,,,,,,,504.56571529799976,None,0.20292199290042845,0.22286170690040308,0.30287973190024786,0.32290125890040144,0.4028394499005117,0.42299770990030083,0.5028932699005964,0.5229033659002198,0.6029322579001928,0.6228796909003904,506.15570972600017,None,506.15570972600017,None,0.7028948619004041,0.7229126369002188,0.8028867239004285,0.8229514419003863,0.9029542389002927,None,1.002922512900568,1.0228642279002997,1.1028874949001874,None,1.2028967119003937,1.2228382289004003,None,None,None,None,left,0.20248472900038905,1.0129790459004653,None,506.4657085929998,None,it_021522,001,2022_Feb_15_1208,Wolfram,2021.2.3,99.98880225387141,
-6,0,1,34,87,2,,,,,,,,,507.2651350729998,None,0.2030052418995183,0.22299918789985895,0.3029781578998154,0.3229509908996988,0.40300497489943155,0.4229844218998551,0.5030346678995556,0.5229787558996577,0.6029279768995366,0.6230021338997176,508.2751639469998,508.77520889900006,508.2751639469998,508.77520889900006,0.7029701738997574,0.7230250488996717,0.8029751988997305,0.8230133458996534,0.9029807178994815,0.9229488648998085,1.0029901458997301,None,1.1031088218996956,1.1229658038996604,1.2029880718996537,1.2229235638997125,None,None,None,None,left,0.4117484749999676,0.8029751988997305,None,508.79514639399986,None,it_021522,001,2022_Feb_15_1208,Wolfram,2021.2.3,99.98880225387141,
-6,23,1,35,88,25,,,,,,,,,509.5951849950002,None,0.20309102389956024,None,0.3030666688996462,None,0.4030461388997537,None,0.5030549078996955,None,0.6031740058997457,0.6230943158998343,510.9151636759998,None,510.9151636759998,None,0.703056821899736,None,0.8032526748997952,0.8231540378997124,0.9030602338998506,None,1.003171536899572,1.0232020698995257,1.1032024688997808,1.1230893298998126,1.2031829448997087,None,None,None,None,None,left,0.179872503000297,1.0330620288996215,None,511.1954164220001,None,it_021522,001,2022_Feb_15_1208,Wolfram,2021.2.3,99.98880225387141,
-6,41,1,36,89,43,,,,,,,,,511.9952226959999,None,0.2029602439001792,0.2229759319002369,0.3029906639003457,0.32291299190001155,0.402921993900236,0.4229288579003878,0.5028998589000366,0.5229192829001477,0.6029732279002928,None,513.814618724,514.3146871700001,513.814618724,514.3146871700001,0.7031509299004028,0.7230036969003777,0.8029798119000588,0.8229573099001755,0.9030114609004158,0.9229999539002165,1.0030047509003452,1.0229643929001213,1.102970261900282,1.1229344039002171,1.202900086900172,1.2229691889001515,1.302997656900061,1.3229997129001276,1.402948705900144,1.4229778099002033,left,0.44115213799977937,1.21291993190016,None,514.3646634319998,None,it_021522,001,2022_Feb_15_1208,Wolfram,2021.2.3,99.98880225387141,
-6,38,1,37,90,40,,,,,,,,,515.1646805529999,None,0.20324768489990674,0.22312904189993787,0.30319272890028515,0.3232631339001273,0.403227851900283,0.42320740390005085,0.5032746678998592,0.5232677338999565,0.603299490900099,0.6232038268999531,516.6347113309998,None,516.6347113309998,None,0.7032949529002508,0.7232660008999119,0.8033331658998577,0.8231518169000083,0.9031781519001925,None,1.0032819149000716,1.0232213479002894,1.103191497899843,1.1231989638999949,1.2031969689001016,None,None,None,None,None,left,0.01733857999988686,1.1831975299000987,None,516.754809606,None,it_021522,001,2022_Feb_15_1208,Wolfram,2021.2.3,99.98880225387141,
-6,11,1,38,91,13,,,,,,,,,517.5541617049998,None,0.20295677490003072,0.22287660990014047,0.30295901089994004,0.3228337498999281,0.40287107689982804,0.42287995890001184,0.502814602899889,0.522925270900032,0.6028797048998058,0.6229253849000997,518.8642368719998,None,518.8642368719998,None,0.7029097858999194,0.7228943858999628,0.8032342258998142,0.8229830629002208,0.9029298719001417,0.9229157669001324,1.0028978329000893,1.0228002569001546,None,None,None,None,None,None,None,None,left,0.13907555000014327,0.9128141228998174,None,519.1041634369999,None,it_021522,001,2022_Feb_15_1208,Wolfram,2021.2.3,99.98880225387141,
-6,32,1,39,92,34,,,,,,,,,519.9041403860001,None,0.20298474889978024,0.22299220389959373,0.3030547118996765,0.3229693818998385,0.40298166689990467,None,0.503024640899639,0.522951442899739,0.6029016298998613,None,521.44414616,None,521.44414616,None,0.7029582838999886,0.723005793900029,0.8029683818999729,0.8229950618997464,0.9029303658999197,0.9229405008995855,1.0030701618998137,1.0230638209000062,1.1030138568999064,1.1231025778997719,1.2029191668998465,None,1.303017855899725,1.3229302708996329,1.403230805899966,1.4231981318998805,left,0.3360524730001089,1.1231025778997719,None,521.884282949,None,it_021522,001,2022_Feb_15_1208,Wolfram,2021.2.3,99.98880225387141,
-6,16,1,40,93,18,,,,,,,,,522.6836288660002,None,0.20294900489989232,0.22291686289963764,0.3029985968996698,0.32295835889954105,0.40294772989955163,0.4229778558997168,0.5029969968995829,0.5229406628996003,0.6030134408997583,0.6229463148997638,523.8936515189998,None,523.8936515189998,None,0.7029892998998548,0.7229697598995699,0.8029789978995723,0.8230120178996003,0.9029548988996794,None,1.0029984488996888,1.0230479208998986,1.103304863899666,1.1230614208998304,1.203057702899514,1.2229787288997613,None,None,None,None,left,0.27338042500014126,0.9629953128996931,None,524.2735905210002,None,it_021522,001,2022_Feb_15_1208,Wolfram,2021.2.3,99.98880225387141,
-6,50,1,41,94,52,,,,,,,,,525.0736030590001,None,0.20296654189996843,0.22302228989974537,0.3024641469000926,0.32242801389975284,0.4024987499001327,0.4224570358996971,0.5024738578999859,0.5224664989000303,0.6024300968997522,0.6223827858998447,528.1432300279998,528.6431137640002,528.1432300279998,528.6431137640002,0.7024658058999194,0.7224201279000226,0.8024489388999427,0.8224502149000728,0.9025082708999435,0.9224522329000138,1.002480489899881,1.0224591078999765,1.102496829899792,1.1224241319000612,1.2024421168998742,1.2224531419001323,1.302506631900087,1.3224318838997533,1.4026541478997387,1.4224791019000804,left,0.523738934999983,1.302506631900087,None,528.7731509770001,None,it_021522,001,2022_Feb_15_1208,Wolfram,2021.2.3,99.98880225387141,
-6,49,1,42,95,51,,,,,,,,,529.5731944240001,None,0.20302794589997575,0.22316466690017478,0.3031285539000237,0.32315331390009305,0.4030359509001755,0.42302550490012436,0.5031632309000997,0.5231640809001874,0.6030710929003362,0.6230773339002553,531.2232901480002,None,531.2232901480002,None,0.7030508819002534,0.7231421069000135,0.8031133219001276,0.823090176900223,0.9031202949004182,0.9231181239001671,1.0031328349000432,1.0231044389001909,1.1030801709002844,1.1230891649001933,1.2032139469001777,1.2230434619000334,1.3030220729001485,1.3231277199001852,1.4031458189001569,1.4230467149000106,left,0.18883947899985287,1.2930134509001618,None,531.5131523750001,None,it_021522,001,2022_Feb_15_1208,Wolfram,2021.2.3,99.98880225387141,
-6,43,1,43,96,45,,,,,,,,,532.3126733949998,None,0.20305277389979892,0.22311061490017892,0.3030927349000194,0.32305726989989125,0.403141579899966,0.42307584789978137,0.5030168069001775,0.52307922889986,0.6030234458999075,0.6230390289001662,534.0626368600001,534.5626376989999,534.0626368600001,534.5626376989999,0.703112037900155,0.7230723599000157,0.8030712769000274,0.8230998599001396,0.9030459018999863,0.9231299149000733,1.0031115308997869,1.0230829268998605,1.1030372978998457,1.123057147899999,1.2034434718998455,None,1.3030135269000311,1.323095731900139,1.403194136899856,1.4230926729001112,left,0.42092400899991844,1.2333062089001032,None,534.5926188779999,None,it_021522,001,2022_Feb_15_1208,Wolfram,2021.2.3,99.98880225387141,
-6,42,1,44,97,44,,,,,,,,,535.3926344319998,None,0.20211023689989815,0.22208848089985622,0.30217856690023837,0.3221870208999462,0.40211428990005516,0.4221340659000816,0.5021437809000417,0.5221453699000449,0.6021697479000068,0.6220995509002023,537.2126720410001,537.71205822,537.2126720410001,537.71205822,0.7022035329000573,0.7221643688999393,0.8021518938999179,0.822166161899986,0.9020913929002745,0.9220981109001514,1.0024019339002734,1.0224160819002464,1.1021145428999262,None,1.201556659900234,1.2215580268998565,1.3015182719000222,1.3215024978999281,1.4015499688998716,1.4215131869000288,left,0.5546782880001047,1.2215580268998565,None,537.8721788389998,None,it_021522,001,2022_Feb_15_1208,Wolfram,2021.2.3,99.98880225387141,
-6,18,1,45,98,20,,,,,,,,,538.6721318229997,None,0.20316298989973802,0.22317853089953132,0.3031547768996461,0.323214990899487,0.4032715858998017,0.42320047889961643,0.5031655298994337,None,0.6032903818995692,0.6231848598995384,539.892167987,None,539.892167987,None,0.7031457158996091,None,0.8031327508997492,None,0.9031258978998267,0.9231295468994176,1.0032213658996625,1.0231278228998235,1.1031341258994871,1.1232651798995903,1.2031357798996396,1.2231475728995065,None,None,None,None,left,0.3060920390003048,0.9832618978994105,None,540.3021231520001,None,it_021522,001,2022_Feb_15_1208,Wolfram,2021.2.3,99.98880225387141,
-6,8,1,46,99,10,,,,,,,,,541.1021047449999,None,0.20285881089967006,None,0.3029897628994149,0.3228854478993526,0.4029341328996452,0.4230108478996044,0.5028905478993693,None,0.6023410548996253,0.6223977058994024,542.4715370869999,None,542.4715370869999,None,0.7023276408995116,0.7223996928996712,0.8023781248994055,0.8223422528994888,0.9023679718993662,0.9223796218993812,1.0024202908994084,1.02244785989933,None,None,None,None,None,None,None,None,left,0.17926480900041497,0.8823128348994942,None,542.7515554359998,None,it_021522,001,2022_Feb_15_1208,Wolfram,2021.2.3,99.98880225387141,
-6,6,1,47,100,8,,,,,,,,,543.5516226969999,None,0.20241577589968074,0.22240646889986238,0.30240197889997944,0.3223861308997584,0.4024724958999286,0.42239730889968996,0.5024069528999462,0.5224143568998443,0.6024662028999046,0.6223373748998711,545.1115751970001,None,545.1115751970001,None,0.7024577268998655,0.7224143768999056,0.8024154699000974,0.8223282568997092,0.9023359448997326,0.9223623969000982,None,None,None,None,None,None,None,None,None,None,left,0.12661745100012922,0.8624249148997478,None,545.3415902400002,None,it_021522,001,2022_Feb_15_1208,Wolfram,2021.2.3,99.98880225387141,
-6,34,1,48,101,36,,,,,,,,,546.1416401920001,None,0.2027872209000634,0.22280640790040707,0.30277962490026766,0.32283853790022476,0.40275232590011,0.4227335239002059,0.5026919079000436,0.5227057229003549,0.6028724439001962,0.6227067659001477,547.6610220359998,None,547.6610220359998,None,0.7021271989001434,None,0.8021563659003732,0.8221351289002996,0.9021527209001761,0.9220827889002976,1.0020638239002437,None,1.102226630900077,1.122246436900241,1.2021534409004744,1.2222754549002275,None,None,None,None,left,0.08595817600007649,1.142157466900244,None,547.8511499040001,None,it_021522,001,2022_Feb_15_1208,Wolfram,2021.2.3,99.98880225387141,
-6,48,1,49,102,50,,,,,,,,,548.6511510959999,None,0.2033172459000525,0.22317086290013322,0.303233850900142,0.3231577258998186,0.40332081989981816,0.42331517589991563,0.5031914479000079,0.5231845169000735,0.6032684178999261,0.6232105878998482,550.6210506520001,None,550.6210506520001,None,0.7031897768997624,None,0.8033045129000129,0.8231836329000544,0.9031891418999294,None,1.0033026049,1.023324712899921,1.103221775899783,1.1231886548998773,1.2031969508998372,1.2231499778999932,1.3032161859000553,1.3232217699001012,1.4032764599000984,1.4231976628998382,left,0.39983673999995517,1.2831889738999962,None,551.1210761329999,None,it_021522,001,2022_Feb_15_1208,Wolfram,2021.2.3,99.98880225387141,
-6,37,1,50,103,39,,,,,,,,,551.9210881839999,None,0.20275611589977416,0.22272381589982615,0.3027163248998477,0.3227319698999054,0.40281413289994816,0.42267446489995564,0.5027261418999842,0.5226740488997166,0.602747880899642,0.6227528228996562,554.270607679,None,554.270607679,None,0.7026808978998815,0.722728899899721,0.8027740308998546,0.822671709900078,0.9027241798999057,0.9227430988999004,1.0027948778997597,1.0227384578997771,1.1028446858999814,1.122855269899901,1.202730554899972,None,1.302781308899739,1.322746037899833,None,None,left,0.21508015299968974,1.172836753899901,None,554.5906194200002,None,it_021522,001,2022_Feb_15_1208,Wolfram,2021.2.3,99.98880225387141,
-6,13,1,51,104,15,,,,,,,,,555.3905883900002,None,0.20288236689975747,0.22297530890000417,0.30290811889972247,0.3229545508997944,0.40296961590001956,0.4230075458999636,0.5028452848996494,None,0.6029050138999992,0.6230224029000055,556.8606167590001,None,556.8606167590001,None,0.7028999108997596,0.7229354608998619,0.8029383418997895,0.8229490388998784,0.9029889008997998,0.9229566148997037,1.003026228899671,1.0229785698998057,None,None,None,None,None,None,None,None,left,0.14523437700017894,0.9328211778997684,None,557.1106769510002,None,it_021522,001,2022_Feb_15_1208,Wolfram,2021.2.3,99.98880225387141,
-6,17,1,52,105,19,,,,,,,,,557.9100501140001,None,0.2032251379000627,0.2232572029001858,0.3034168909002801,0.32344307790026505,0.40321762890016544,0.423298612900453,0.5032145409004443,0.5232948489001501,0.6033076949001952,0.6232967019004718,559.510074495,560.0099953859999,559.510074495,560.0099953859999,0.7032597469001303,0.7232361019000564,0.8033097919001193,0.8232366199003991,0.903333646900137,0.9232464229003199,1.003385652900306,1.023342978900473,1.1033147029002066,1.123304494900367,1.20335397090048,1.2233206889004578,1.3032743969001785,1.323295681900163,1.4032369039000514,1.423292154900082,left,0.48825284300028216,0.973252147900439,None,560.1000113949999,None,it_021522,001,2022_Feb_15_1208,Wolfram,2021.2.3,99.98880225387141,
-6,15,2,0,106,17,,,,,,,,,560.900035437,None,0.20309850989997358,0.22311992389995794,0.30311540690036054,None,0.4030951089002883,0.42314334289994804,0.503286904900051,0.5232701439003904,0.6031883219002339,0.6231267449002189,562.2700674950001,562.7695671619999,562.2700674950001,562.7695671619999,0.7031722568999612,None,0.8031520529002592,0.8231187879000572,0.9026107599001989,0.922695675900286,1.002638763899995,1.0226525859002322,1.1026977779001754,1.1226691148999635,1.202668912900208,1.222624564900343,1.3025941199002773,1.322608787900208,1.4027244499002336,1.422660962899954,left,0.48496699200040894,0.9526131329002965,None,562.8595805290001,None,it_021522,001,2022_Feb_15_1208,Wolfram,2021.2.3,99.98880225387141,
-6,45,2,1,107,47,,,,,,,,,563.6595170760002,None,0.20316232989989658,0.22323251489979157,0.3031270998999389,0.3230663328999981,0.4031601008996404,0.4231216548996599,0.5031192088999887,0.5231297278996863,0.6031331648996456,0.623174422899865,565.5895873549998,None,565.5895873549998,None,0.7030911058996026,0.7231059038999774,0.803065345899995,0.8231448368997007,0.9031237568997312,0.9230545118998634,1.0030644158996438,1.0230523528998674,1.10313208189973,1.123149993899915,1.203174825899623,1.223153107899634,1.3031509838997408,1.3231670038999255,1.4031755268997586,1.42316974689993,left,0.24746857699983593,1.2530826058996354,None,565.9396032579998,None,it_021522,001,2022_Feb_15_1208,Wolfram,2021.2.3,99.98880225387141,
-6,18,2,2,108,20,,,,,,,,,566.7396830560001,None,0.20284443989976353,0.22285142689952409,0.3029381238998212,0.322909049899863,0.402968092899755,0.4228785648997473,0.5029312088995539,0.5229413068996109,0.6029484088999197,0.622953312899881,568.489055004,568.989025935,568.489055004,568.989025935,0.7028755808996721,0.7229528378998111,0.8029429558996526,0.8229262318996007,0.9029638088995853,0.9229119518995503,1.002971574899675,None,1.102899947899914,1.1229595858994799,1.202850549899722,1.2229603948999284,1.3028923788997417,1.322881689899532,1.4029672968995328,1.4229993748995184,left,0.8354029580000315,0.98296895689964,None,569.429055269,None,it_021522,001,2022_Feb_15_1208,Wolfram,2021.2.3,99.98880225387141,
-6,32,2,3,109,34,,,,,,,,,570.2290645339999,None,0.2028101809000873,0.2227694308999162,0.302817635899828,0.322815479899873,0.40291384190004464,0.4227807529000529,0.502764127899809,0.5228160869000931,0.6028543738998451,0.6227995788999579,571.7390584740001,None,571.7390584740001,None,0.7027815078999993,0.7227280109000276,0.8027870698997503,0.8228173318998415,0.9028618529000596,0.9227426208999532,1.0028097558997615,None,1.1027536949000023,1.1228804408997348,1.2027934879001805,1.2228908378997403,1.3028891768999529,1.322742729899801,None,None,left,0.2272976459998972,1.1228804408997348,None,572.069027089,None,it_021522,001,2022_Feb_15_1208,Wolfram,2021.2.3,99.98880225387141,
-6,44,2,4,110,46,,,,,,,,,572.868610515,None,0.20303305990046283,0.2230043509002826,0.3030072719002419,0.32312062490018434,0.4029926859002444,None,0.5030667189002997,0.523046792900459,0.603032639900448,0.6230214829001852,574.5984813519999,575.0985671519998,574.5984813519999,575.0985671519998,0.7031416969002748,0.7230822059004822,0.8031183279003926,0.8231126509003843,0.9031016369003737,0.9229871479001304,1.0030915539005036,1.0230544609003118,1.103093084900138,1.1230171549004808,1.2029753959004665,1.223018351900464,1.3029877839003348,1.3229792439001358,1.4030487619002088,1.4230821749001734,left,0.5990340310004285,1.243008321900561,None,575.2987946509998,None,it_021522,001,2022_Feb_15_1208,Wolfram,2021.2.3,99.98880225387141,
-6,8,2,5,111,10,,,,,,,,,576.0985457309998,None,0.2031172998999864,0.22312339390009583,0.30321425989995987,0.3231908638999812,0.4032066048998786,0.42311785389983925,0.5031210178999572,0.5231520228999216,0.602584448899961,0.6225879738999538,577.5680175140001,578.0679668819998,577.5680175140001,578.0679668819998,0.7025679139001113,0.7225615989000289,0.8027368919001674,0.8226523698999699,0.9026864789002502,0.9226957968999159,1.0027111808999507,1.022649962900232,1.1026406429000417,1.1226534549000462,1.2026851779000935,1.2225671978999344,1.3025964009002564,None,1.4025693828998556,None,right,0.7565750069998103,0.8825876219002566,None,578.4280456810002,None,it_021522,001,2022_Feb_15_1208,Wolfram,2021.2.3,99.98880225387141,
-6,36,2,6,112,38,,,,,,,,,579.2281481949999,None,0.20296083089988315,0.2229014948998156,0.30296269389964436,0.32294319789980364,0.40291274989976955,0.42286863789968265,0.50295872389961,0.5229118158999881,0.6028727478997098,0.622934309899847,580.858083654,581.358083091,580.858083654,581.358083091,0.702894858899981,0.7229462708996834,0.802912497899797,0.8228963428996394,0.9029293068997504,0.9228745088998949,1.0030629018997388,1.0229336288998638,1.1029660088997844,1.1229374988997733,1.2028773989000001,None,1.3029423248999592,None,1.402907386899642,1.4228701588999684,left,0.4928139159997045,1.162918044899925,None,581.4580963459998,None,it_021522,001,2022_Feb_15_1208,Wolfram,2021.2.3,99.98880225387141,
-6,46,2,7,113,48,,,,,,,,,582.2581032369999,None,0.20310055190066123,0.2231544919004591,0.303164060900599,0.32320267690056426,0.4031944829002896,0.4232225489004122,0.5031462689003092,0.523099020900645,0.6032225919007033,0.6231938139003432,583.767480347,584.2675070979999,583.767480347,584.2675070979999,0.7032031839003139,0.7232047869006237,0.803090928900474,0.8231748039006561,0.9031548199004646,0.9231549829005417,1.0031759939006406,1.0232056289005413,1.1031687219006017,1.1232130019006945,1.2031402259003698,1.2231944139002735,1.3030901939005162,1.3230935819005936,1.403097749900553,1.4231613019005636,left,0.5423884179999732,1.263205007900524,None,584.4175576520001,None,it_021522,001,2022_Feb_15_1208,Wolfram,2021.2.3,99.98880225387141,
-6,7,2,8,114,9,,,,,,,,,585.2174683089997,None,0.20295877789976657,0.22295326289986406,0.30292296890002035,0.3230135288999918,0.40298485289986274,None,0.502988958900005,0.5229362408999805,0.6030235989001085,0.623046149899892,586.307539636,586.807448476,586.307539636,586.807448476,0.7030026248999093,0.7229772409000361,0.8030140608998408,0.8229763309000191,0.9030453689001661,0.9230285448998075,1.0029531088998738,1.0230325268998968,1.1030520398999215,1.123078211900065,1.203012506899995,1.223026107899841,1.3030403519001084,1.3230036978998214,1.403020263900089,None,left,0.5782424920002995,0.8730082439001308,None,586.987491464,None,it_021522,001,2022_Feb_15_1208,Wolfram,2021.2.3,99.98880225387141,
-6,16,2,9,115,18,,,,,,,,,587.786904732,None,0.20276823089989193,0.22271973789975164,0.30274074689987174,0.3228319278996423,0.4027319698998326,0.4228676868997354,0.5030475698999908,0.5227310608997868,0.6027284668998618,0.6228069928997684,589.1669778609999,None,589.1669778609999,None,0.7028113088999817,0.7227426138997544,0.8028002958999423,0.8228064718996393,0.9028455368998038,0.9227588678995744,1.0027961848995801,1.0227390358995763,1.1028273918996092,1.1228742878997764,1.2028231488998244,1.2227307698999539,None,None,None,None,left,0.3067506239999602,0.9627853828997104,None,589.5769337629999,None,it_021522,001,2022_Feb_15_1208,Wolfram,2021.2.3,99.98880225387141,
-6,33,2,10,116,35,,,,,,,,,590.3769309889999,None,0.20304352889979782,0.22310026189961718,0.30306050789977235,0.3230653378996067,0.4031253848997949,0.42297441389973756,0.5030616038998232,0.5230000258998189,0.6024893918997805,0.622445383899958,592.806469614,None,592.806469614,None,0.7024062938999123,0.7224968558998626,0.8024554868998166,0.8224453798998184,0.9024169998997422,0.9225148198997886,1.0024644408999848,1.02249640789978,1.1024366878996261,1.122479381899666,1.2024393918995884,None,None,None,None,None,left,0.15411337500017908,1.132616077899911,None,593.066455617,None,it_021522,001,2022_Feb_15_1208,Wolfram,2021.2.3,99.98880225387141,
-6,34,2,11,117,36,,,,,,,,,593.8664792250001,None,0.2032367038996199,0.22313816689984378,0.3032271838997076,0.32310495089950564,0.40319674089960245,0.4231406608996622,0.5031302358997891,0.5230679268997847,0.6032171868996556,0.6231088028994236,596.006449036,None,596.006449036,None,0.7031126498995945,0.7231073718994594,0.8032242598997072,0.8231487748994368,0.9031521418996817,0.9231241128995862,1.0030998438996903,1.0231096078996416,1.1031311598994762,1.1231481458994494,1.2030918158998247,1.2231695548998687,1.3031002458997136,1.3232120538996242,None,None,left,0.19410158000027877,1.1432175648997145,None,596.3065271300002,None,it_021522,001,2022_Feb_15_1208,Wolfram,2021.2.3,99.98880225387141,
-6,14,2,12,118,16,,,,,,,,,597.1065477319999,None,0.20282111689994053,0.22272941089977394,0.30268927389988676,0.3226539368997692,0.40267710089983666,None,0.502731411899731,0.5227091939000275,0.6026580088996525,None,598.5359971940002,None,598.5359971940002,None,0.702743555899815,0.7228076078999948,0.8027556928996091,0.8227529078999396,0.9027712959000382,0.9226885308999044,1.0028066818999832,1.0226904348996868,1.1026604598996528,None,None,None,None,None,None,None,left,0.16230670899994948,0.9428007358997093,None,598.8059758549998,None,it_021522,001,2022_Feb_15_1208,Wolfram,2021.2.3,99.98880225387141,
-6,1,2,13,119,3,,,,,,,,,599.606011119,None,0.2030061958994338,0.22297385389947522,0.3030804448994786,0.3230380228997092,0.40301153089967556,0.4231259588996181,0.5031237128996509,0.523079285899712,0.6029701668994676,0.6230883278994952,601.045993659,None,601.045993659,None,0.7030084678995081,0.723017848899417,0.8030785918995207,0.8229793528994378,0.9029643158996805,0.9230861648998143,1.0030503438997584,1.022998069899586,1.1029796348998389,1.1230235218995404,None,None,None,None,None,None,left,0.34087988300007055,0.8130094058997202,None,601.496022453,None,it_021522,001,2022_Feb_15_1208,Wolfram,2021.2.3,99.98880225387141,
-6,41,2,14,120,43,,,,,,,,,602.2960088559998,None,0.20306339690023378,0.22306362490007814,0.3029924649003988,0.3229746419001458,0.4030568009002309,None,0.5032634429003338,0.5230333319000238,0.603100060900033,0.6229867149004349,603.7255280539998,None,603.7255280539998,None,0.7030074959002377,0.7230561819001196,0.8030072029000621,0.8230401549003545,0.9030978189002781,0.9230665629002033,1.002994845900048,1.0230545099002484,1.1030970729002547,None,1.2030444269003056,None,None,None,None,None,left,-0.21208489499986172,1.2129307549002988,None,603.8253966769998,None,it_021522,001,2022_Feb_15_1208,Wolfram,2021.2.3,99.98880225387141,
-6,11,2,15,121,13,,,,,,,,,604.6255203119999,None,0.2029955659004372,None,0.30300985290023164,None,0.40300071790034053,None,0.5029595579003399,0.5229303929004345,0.6025325229002192,0.6224365359003059,607.6149371040001,None,607.6149371040001,None,0.7024546519000978,0.7225147059002666,0.8025088149001931,0.8225506699000107,0.9024185839002712,0.9225274229002025,1.0024980039002003,1.0224870069000644,None,None,None,None,None,None,None,None,left,0.13959102799981338,0.9124083679002979,None,607.854901018,None,it_021522,001,2022_Feb_15_1208,Wolfram,2021.2.3,99.98880225387141,
-6,22,2,16,122,24,,,,,,,,,608.6552743550001,None,0.20335304690024714,0.2232294289001402,0.3031917629000418,0.32312935690015365,0.40315782190009486,0.42319119789999604,0.5031811438998375,0.5232393679002598,0.6032231149001746,0.623197003900259,610.8851004419998,None,610.8851004419998,None,0.703283940899837,0.7232146279002336,0.8031403468999088,0.823190313899886,0.9031405229002303,None,1.0031406298999173,1.0231150199001604,1.1032307409000168,1.1232006948998787,None,None,None,None,None,None,left,0.15278838999984146,1.0231150199001604,None,611.145025885,None,it_021522,001,2022_Feb_15_1208,Wolfram,2021.2.3,99.98880225387141,
-6,23,2,17,123,25,,,,,,,,,611.9449834860002,None,0.20308884489986667,0.2231573038998249,0.30317297589999725,0.32310906890006663,0.4031511308999143,0.4233023849001256,0.5031442458998754,0.523182234900105,0.6031663579001361,0.6231457748999674,613.534371924,None,613.534371924,None,0.7031138979000389,0.7232160758999271,0.8031615309000699,0.8231117669001833,0.9031726979001178,0.9231136869002512,1.0031159719001153,None,1.103229322900006,1.1231656498998746,None,None,None,None,None,None,left,0.09283168500041938,1.033290653900167,None,613.7344362979998,None,it_021522,001,2022_Feb_15_1208,Wolfram,2021.2.3,99.98880225387141,
-6,4,2,18,124,6,,,,,,,,,614.5344304159999,None,0.20313930090014765,0.2232425849001629,0.3032040859002336,0.3232365989001664,0.40322712690021945,0.42321434390032664,0.5031450659002985,0.5231584029002079,0.6032265039002596,0.6232203929002935,616.0744544079998,None,616.0744544079998,None,0.7032665819001522,0.7232795779004846,0.8031376559001728,0.8231425249005042,0.9032668259005732,0.9232117699002629,1.0032586369002274,None,None,None,None,None,None,None,None,None,left,0.1512383670001327,0.8431588359003399,None,616.3444955479999,None,it_021522,001,2022_Feb_15_1208,Wolfram,2021.2.3,99.98880225387141,
-6,13,2,19,125,15,,,,,,,,,617.1444255060001,None,0.20282972889981465,None,0.30289342390005913,None,0.40287466290010343,None,0.5028730008998537,None,0.6028541538998979,None,618.3341193619999,None,618.3341193619999,None,0.7028458388999752,0.7228351978997125,0.8030828698997539,0.8231321428997944,0.9030905048998648,0.9229190379001011,1.0029720049001298,1.0229874919000395,1.102998929899968,1.1229283268999097,None,None,None,None,None,None,left,0.23193406500013225,0.932903455900032,None,618.6738914120001,None,it_021522,001,2022_Feb_15_1208,Wolfram,2021.2.3,99.98880225387141,
-6,43,2,20,126,45,,,,,,,,,619.4739544039999,None,0.2029132818997823,None,0.3030745528994885,0.3230211878994851,0.40304720589983845,0.42298749889960163,0.502946966899799,None,0.6029718538998168,0.6230147498995393,621.3740702219998,None,621.3740702219998,None,0.703014965899456,0.7230843928996364,0.8029226578996713,None,0.9030133358996864,0.9231071708995842,1.0030077258998062,1.0230712478996793,1.1030186978996426,1.123075703899758,1.2030346528995324,1.2229385968994393,1.3029638428997714,1.3230718378995334,1.4029477928997949,None,left,0.16194587300014973,1.2329042538995054,None,621.6439376570002,None,it_021522,001,2022_Feb_15_1208,Wolfram,2021.2.3,99.98880225387141,
-6,25,2,21,127,27,,,,,,,,,622.4433641289997,None,0.2031493769000008,0.22313041489996976,0.30314273090016286,0.3231353699002284,0.403135573900272,0.42309162290030145,0.5031899118998808,0.5231856799000525,0.6031015979001495,0.6231723128998965,625.1134190419998,None,625.1134190419998,None,0.7030949249001424,0.7232560919001116,0.8030912019003154,0.8231581579002523,0.9031786938999176,0.9231178878999344,1.0031502618999184,1.023089316900041,1.1032322789001228,1.123096211900247,1.2030947099001423,None,1.3031656248999752,None,None,None,right,0.30348334399968735,1.0531524539001111,None,625.5233898040001,None,it_021522,001,2022_Feb_15_1208,Wolfram,2021.2.3,99.98880225387141,
-6,47,2,22,128,49,,,,,,,,,626.323440226,None,0.20297867089993815,0.22295715790005488,0.30290298189993337,0.3228892278998501,0.40283585589986615,None,0.5028511789000731,0.5228372708997995,0.6028967399001885,0.6229563328997756,627.8628511900001,None,627.8628511900001,None,0.7029053329001727,0.7230008108999755,0.8023241528999279,0.8222796289001053,0.9024070789000689,0.922369615900152,1.0022896399000274,1.0223133048998534,1.1023300519000259,1.1223476908999146,1.202270284899896,1.2223074308999458,1.302371639899775,1.322340357899975,1.4022632978999354,1.42230761790006,right,0.36653944499994395,1.2723505308999847,None,628.3329810959999,None,it_021522,001,2022_Feb_15_1208,Wolfram,2021.2.3,99.98880225387141,
-6,38,2,23,129,40,,,,,,,,,629.1328802170001,None,0.20303967990003002,0.2230549349001194,0.30327751489994625,0.3232398389000082,0.4030949728999076,0.42308741690021634,0.5031407389001288,0.5230256129002555,0.6031013449000966,0.6230626699002642,630.642937432,631.1429533289997,630.642937432,631.1429533289997,0.7031269289000193,0.7230911739002295,0.8031571279002492,0.823094907900213,0.9030719168999894,None,1.003104459899987,1.0230452389000675,1.1030494779001856,1.1231173628998476,1.2031126319002396,1.223184598899934,1.30303709789996,1.3231554029002837,1.4031932939001308,1.4230953919000058,left,0.8154961099999127,1.1831849389000126,None,631.5629479549998,None,it_021522,001,2022_Feb_15_1208,Wolfram,2021.2.3,99.98880225387141,
-6,9,2,24,130,11,,,,,,,,,632.3629863719998,None,0.20313525889969242,0.22313841789991784,0.3030970888999036,0.32309710189974794,0.40308795989994906,0.4231945968999753,0.5032122508996508,0.5231373658998564,0.6031544428997222,0.6230812378998962,633.522309339,634.022397232,633.522309339,634.022397232,0.7031800388999727,0.7231532918999619,0.803142818899687,0.8231273688998044,0.9031455168997127,None,1.0031529248999504,1.0231221219000872,1.103154129899849,None,1.2032057069000075,1.223140309899918,1.3032238078999399,1.3231473578998703,1.403110219899645,1.42321105289966,right,0.6470511929996974,0.8932465268999294,None,634.2723494530001,None,it_021522,001,2022_Feb_15_1208,Wolfram,2021.2.3,99.98880225387141,
-6,17,2,25,131,19,,,,,,,,,635.072386974,None,0.20305622389969358,0.22305290789972787,0.303001075899374,0.3230796738994286,0.40303992689950974,0.4231080488993939,0.5029587458993774,0.5230634208996889,0.6030990708995887,0.6230243078994135,636.9524775189998,None,636.9524775189998,None,0.7030155708994243,0.723021612899629,0.803010198899301,0.8230011448995356,0.903148626899565,0.9230198128993834,1.0029951958995298,None,1.1030626168994786,1.1229955318995053,1.203131266899618,1.223104583899385,None,None,None,None,right,0.25459258000000773,0.9730510518993469,None,637.312360245,None,it_021522,001,2022_Feb_15_1208,Wolfram,2021.2.3,99.98880225387141,
-6,0,2,26,132,2,,,,,,,,,638.1119401749997,None,0.2030729179004993,0.2228776849001406,0.3030393439003092,0.32302478990050076,0.4030547229003787,0.42293706190048397,0.5029525739000746,0.5229825639003138,0.602958029900492,0.6230214689003333,640.271864286,None,640.271864286,None,0.7029867379001189,0.7229533319004986,0.8029612339000778,0.8229923769004017,0.902972511900316,0.9229981029002374,1.0030289499004539,None,None,None,None,None,None,None,None,None,left,0.2087343969997164,0.8029612339000778,None,640.582044283,None,it_021522,001,2022_Feb_15_1208,Wolfram,2021.2.3,99.98880225387141,
-6,27,2,27,133,29,,,,,,,,,641.3818740040001,None,0.20238038690058602,0.2222824219006725,0.30230576490066596,0.3223516339003254,0.40237104990046646,0.42232558290061206,0.5023722159003228,0.5223217329007639,0.6023140739007431,0.6223318569004732,643.2313817670001,None,643.2313817670001,None,0.7024004939007682,0.7223623679005868,0.8022902229004103,None,0.9022949029003939,None,1.0023167309004748,1.022457511900484,1.1023450159004824,1.1222787679007524,1.2022824119003417,1.2222833149003236,None,None,None,None,left,0.18548511999961192,1.0724193539003863,None,643.521507336,None,it_021522,001,2022_Feb_15_1208,Wolfram,2021.2.3,99.98880225387141,
-6,20,2,28,134,22,,,,,,,,,644.3213648370001,None,0.20335091990000365,0.22321166990013808,0.30325321989994336,0.3232324078999227,0.40323421990024144,None,0.5031988359000934,0.5232113479000873,0.6031718959002319,None,646.0413184270001,None,646.0413184270001,None,0.7033309189000647,0.7231688739002493,0.8032261409002786,None,0.9032546349003496,0.9233193749000748,1.0032034429000305,1.0231833059001474,1.1031675719000305,1.123242288900201,None,None,None,None,None,None,left,0.14342734699994253,1.0032034429000305,None,646.291364876,None,it_021522,001,2022_Feb_15_1208,Wolfram,2021.2.3,99.98880225387141,
-6,3,2,29,135,5,,,,,,,,,647.0913129559999,None,0.20309493290005776,0.22308224490006978,0.30311326089986323,0.3230590508997011,0.4031245909000063,0.42312883089971365,0.5030265008999777,0.5230950988998302,0.6031225368997184,0.6230777178998324,649.280869875,None,649.280869875,None,0.7031391988998621,None,0.8030434999000136,0.8231335618997946,0.9030798088997471,0.9231439718996626,1.0030847589000587,1.0230391398999927,1.1031095669000024,1.1231100068998785,1.2031436509000741,1.2230391038997368,None,None,None,None,right,0.39097996700002113,0.8331489228999089,None,649.7708535219999,None,it_021522,001,2022_Feb_15_1208,Wolfram,2021.2.3,99.98880225387141,
-6,6,2,30,136,8,,,,,,,,,650.570796896,None,0.20280742689965336,None,0.30281969689986,0.32275747789981324,0.40282948289996057,0.42289195989997097,0.5029314188996068,0.52276296789978,0.6027932138999859,None,651.6508724669998,None,651.6508724669998,None,0.7029441268996379,0.7227544388997558,0.8027845448996231,0.8228860888998497,0.9028080048997253,0.9227484189000279,1.0027577398996073,1.022748065900032,1.102803024899913,None,None,None,None,None,None,None,right,0.23728522200008229,0.862830946899976,None,651.9909646299998,None,it_021522,001,2022_Feb_15_1208,Wolfram,2021.2.3,99.98880225387141,
-6,31,2,31,137,33,,,,,,,,,652.7902792079999,None,0.20295598190023156,0.22283979990061198,0.30288187590031157,0.322911395900519,0.40295888790024037,None,0.5029100899005243,0.5229133499005911,0.6028524809003102,0.6229220959003214,655.3102879869998,None,655.3102879869998,None,0.7030028139001843,0.7229459839004448,0.802846342900466,None,0.902956589900441,None,1.0028925719002473,None,1.1028840469002716,1.1228848979003487,1.202871659900211,1.2229401699005393,1.3028515889004666,None,1.4028633199004616,None,left,0.3465601160000915,1.1128672559002553,None,655.760417039,None,it_021522,001,2022_Feb_15_1208,Wolfram,2021.2.3,99.98880225387141,
-6,48,2,32,138,50,,,,,,,,,656.5603959740001,None,0.2032408848999694,0.22317113290000634,0.30324267790001613,0.32314736489979623,0.4032985838998684,0.42325667890008845,0.5032635119000588,0.5232582268999977,0.603297665899845,0.6232697379000456,659.3797889739999,659.879835615,659.3797889739999,659.879835615,0.7032545768997807,0.7232373338997604,0.8032142539000233,0.8231948419002038,0.9033108089001871,0.9232049419001669,1.0032652908998898,1.0232616509001673,1.1032774158998109,1.1232197448998704,1.2032737418999204,1.2231899038997653,1.3032511978999537,1.323311629899763,1.4032778888999928,1.4232469679000133,right,0.7769775790002313,1.2832239569002013,None,660.2597918060001,None,it_021522,001,2022_Feb_15_1208,Wolfram,2021.2.3,99.98880225387141,
-6,35,2,33,139,37,,,,,,,,,661.0599430749999,None,0.20320018189977418,0.22324361589971886,0.3032983768998747,0.3233072929001537,0.40320587589985735,0.4232166538999991,0.5033950529000322,0.5232031978998748,0.6032308978997207,0.623323212899777,662.9092578069999,None,662.9092578069999,None,0.7026521858997512,0.7226922659001502,0.8025993009000558,0.8226614779000556,0.9026702459000262,0.9226416248998248,1.002705475899802,1.022656470900074,1.102678441900025,1.1226473718998022,1.2026972458997989,None,1.3026763189000121,1.3225989318998472,1.402625055899989,None,right,0.30766353399985746,1.15258530589972,None,663.319250777,None,it_021522,001,2022_Feb_15_1208,Wolfram,2021.2.3,99.98880225387141,
-6,49,2,34,140,51,,,,,,,,,664.1192885179998,None,0.20301548690031268,0.2230478289002349,0.3030610609002906,0.323055709900018,0.4030413979003242,0.4230691979000767,0.5029959169000904,0.5230309629000658,0.6031071159000021,0.6230824779004251,666.3492488389998,None,666.3492488389998,None,0.7030357859002834,0.7230302969001059,0.8030189279002116,0.823047470900292,0.9030319629000587,0.9230792619000567,1.0031358119003926,1.0230617989000166,1.1030526379004186,1.1230293739004082,1.203030929900251,1.223070633900079,1.3030455129000984,1.3230606609004099,1.4029661479003153,1.4230215519000922,left,0.1524477250000018,1.2930989219003095,None,666.6092633570001,None,it_021522,001,2022_Feb_15_1208,Wolfram,2021.2.3,99.98880225387141,
-6,37,2,35,141,39,,,,,,,,,667.409311459,None,0.20262339490000159,0.2226011908996952,0.30260125989980224,0.3225799308997921,0.40270741989979797,0.4225956298996607,0.5026420658996358,0.5226414128997021,0.6026564898998004,0.6226790678997531,670.6088889990001,None,670.6088889990001,None,0.7026839468999242,0.7226410838998163,0.8026856358997065,0.8226041598995835,0.9025647348998973,0.9225695238997105,1.0026151648999075,1.022648438899978,1.1026649058999283,1.1226443878999817,1.2026158259000113,1.2226540378997015,1.3026268828998582,1.3226011718998052,None,None,left,0.17919989600022745,1.1726895978999892,None,670.888796708,None,it_021522,001,2022_Feb_15_1208,Wolfram,2021.2.3,99.98880225387141,
-6,39,2,36,142,41,,,,,,,,,671.6888157170001,None,0.20257017789981546,0.22255120389991134,0.30252998890000526,0.322519752900007,0.40253358490008395,0.42258197989986,0.5025108018999163,0.52259334090013,0.6026042669000162,0.6225664798998878,674.6382344250001,675.1382936790001,674.6382344250001,675.1382936790001,0.7025716589000695,0.722606728899791,0.8025767558997359,0.8226130238999758,0.9025876658997731,0.9226418219000152,1.002541919900068,1.0225344719001441,1.102603580899995,1.1225450618999275,1.2026110909000636,1.22251563789996,1.3025442629000281,None,1.4026152618998822,1.4225912608999352,left,0.6048259299996062,1.1926115998999194,None,675.348233486,None,it_021522,001,2022_Feb_15_1208,Wolfram,2021.2.3,99.98880225387141,
-6,42,2,37,143,44,,,,,,,,,676.1482553989999,None,0.2029874858999392,0.22305233390034118,0.3030214919003811,0.32304686290035534,0.4029387609002697,0.4230487239001377,0.5024442768999506,0.522375473899956,0.6027462608999485,0.6226221189003809,678.1978368,678.6977619499999,678.1978368,678.6977619499999,0.7024803319000057,0.7225327409000784,0.8024127529001817,0.8224545879002108,0.9023822279000342,0.9224457529003303,1.0024873648999346,1.0224483578999752,1.1024217169001531,None,1.2024443699001495,1.2224132159003602,1.3024502429002496,1.3224144888999945,1.4024620049003715,1.422422490900317,left,0.6434606299999359,1.2224132159003602,None,678.9477235119998,None,it_021522,001,2022_Feb_15_1208,Wolfram,2021.2.3,99.98880225387141,
-6,28,2,38,144,30,,,,,,,,,679.7477044130001,None,0.203015601900006,0.22309492690010302,0.303139826899951,0.32309377889987445,0.4031177678998574,0.4231146598999658,0.5031337088998953,0.5231245309000769,0.6029943838998406,0.6230684509000639,681.5477435990001,682.047753461,681.5477435990001,682.047753461,0.7030646418998003,0.7230467219001184,0.8030721978998372,0.8230193598997175,0.9030722159000106,0.9231161228999554,1.003043531899948,1.0230381859000772,1.1030199519000234,1.1229931498996848,1.2030653808997158,1.223049877899939,1.3029986869000822,1.3230600059000608,1.40306146490002,1.4230934688998786,right,0.9740111930000239,1.0830650498996874,None,682.6272151620001,None,it_021522,001,2022_Feb_15_1208,Wolfram,2021.2.3,99.98880225387141,
-6,5,2,39,145,7,,,,,,,,,683.4272431549998,None,0.20271349590029786,None,0.30272915790055777,None,0.40269363090055776,0.4227177409002252,0.5028402729003574,0.5227401209003801,0.6028288239003814,0.6227341619005529,684.887303431,685.387286231,684.887303431,685.387286231,0.7027175289003935,None,0.8027033689004384,0.8228620629001853,0.9027688199003023,0.922819482900195,1.0027786269001808,1.0227684979004152,1.1028384339001605,1.122699900900443,1.2028623589003473,1.2228663489004248,1.3027657389002343,1.3227755869002067,1.4027006529004211,1.4227497079004934,left,0.6833240959999785,0.8527473879003082,None,685.677241372,None,it_021522,001,2022_Feb_15_1208,Wolfram,2021.2.3,99.98880225387141,
